File: SolidProps/lib/ALUMINUM_ALLOY_5083-T0.csv
T/K,rho/(kg/m3),cp/(J/(kg.K)),K/(W/(m.K)),alpha_thermal/(1/K),resistivity/(ohm.m)
1,2657,0.051,0.677,0,0.0000000303
1.5,2657,0.0773,1.06,0,0.0000000303
2,2657,0.108,1.45,0,0.0000000303
2.5,2657,0.143,1.85,0,0.0000000303
3,2657,0.184,2.27,0,0.0000000303
3.5,2657,0.229,2.69,0,0.0000000303
4,2657,0.28,3.12,0,0.0000000303
4.5,2657,0.337,3.56,0,0.0000000303
5,2657,0.388,4,0,0.0000000303
5.5,2657,0.448,4.44,0,0.0000000303
6,2657,0.515,4.89,0,0.0000000303
6.5,2657,0.59,5.35,0,0.0000000303
7,2657,0.673,5.8,0,0.0000000303
7.5,2657,0.765,6.26,0,0.0000000303
8,2657,0.867,6.73,0,0.0000000303
8.5,2657,0.981,7.19,0,0.0000000303
9,2657,1.11,7.66,0,0.0000000303
9.5,2657,1.25,8.14,0,0.0000000303
10,2657,1.4,8.6,0,0.0000000303
10.5,2657,1.56,9.06,0,0.0000000303
11,2657,1.74,9.52,7.51213e-09,0.0000000303
11.5,2657,1.93,9.98,3.79112e-08,0.0000000303
12,2657,2.14,10.4,6.90985e-08,0.0000000303
12.5,2657,2.37,10.9,1.01066e-07,0.0000000303
13,2657,2.62,11.4,1.33804e-07,0.0000000303
13.5,2657,2.89,11.8,1.67307e-07,0.0000000303
14,2657,3.18,12.3,2.01564e-07,0.0000000303
14.5,2657,3.5,12.8,2.36567e-07,0.0000000303
15,2657,3.84,13.2,2.72309e-07,0.0000000303
15.5,2657,4.21,13.7,3.08782e-07,0.0000000303
16,2657,4.61,14.1,3.45977e-07,0.0000000303
16.5,2657,5.03,14.6,3.83886e-07,0.0000000303
17,2657,5.49,15.1,4.22501e-07,0.0000000303
17.5,2657,5.97,15.5,4.61814e-07,0.0000000303
18,2657,6.49,16,5.01816e-07,0.0000000303
18.5,2657,7.04,16.4,5.42501e-07,0.0000000303
19,2657,7.62,16.9,5.8386e-07,0.0000000303
19.5,2657,8.24,17.3,6.25886e-07,0.0000000303
20,2657,8.9,17.8,6.68569e-07,0.0000000303
20.5,2657,9.6,18.3,7.11903e-07,0.0000000303
21,2657,10.3,18.7,7.5588e-07,0.0000000303
21.5,2657,11.1,19.2,8.00492e-07,0.0000000303
22,2657,11.9,19.6,8.45731e-07,0.0000000303
22.5,2657,12.8,20.1,8.91589e-07,0.0000000303
23,2657,13.7,20.5,9.3806e-07,0.0000000303
23.5,2657,14.7,21,9.85135e-07,0.0000000303
24,2657,15.7,21.4,1.03281e-06,0.0000000303
24.5,2657,16.7,21.8,1.08107e-06,0.0000000303
25,2657,17.8,22.3,1.12991e-06,0.0000000303
25.5,2657,18.9,22.7,1.17933e-06,0.0000000303
26,2657,20.1,23.2,1.22931e-06,0.0000000303
26.5,2657,21.4,23.6,1.27985e-06,0.0000000303
27,2657,22.6,24,1.33095e-06,0.0000000303
27.5,2657,24,24.5,1.38258e-06,0.0000000303
28,2657,25.4,24.9,1.43476e-06,0.0000000303
28.5,2657,26.8,25.3,1.48747e-06,0.0000000303
29,2657,28.3,25.8,1.5407e-06,0.0000000303
29.5,2657,29.8,26.2,1.59444e-06,0.0000000303
30,2657,31.5,26.6,1.64869e-06,0.0000000304
30.5,2657,33.3,27,1.70345e-06,0.0000000304
31,2657,35.1,27.4,1.75869e-06,0.0000000304
31.5,2657,37,27.8,1.81443e-06,0.0000000304
32,2657,39,28.2,1.87065e-06,0.0000000304
32.5,2657,41,28.6,1.92733e-06,0.0000000304
33,2657,43.1,29,1.98449e-06,0.0000000304
33.5,2657,45.2,29.4,2.0421e-06,0.0000000304
34,2657,47.4,29.8,2.10017e-06,0.0000000304
34.5,2657,49.6,30.2,2.15868e-06,0.0000000304
35,2657,51.9,30.6,2.21763e-06,0.0000000304
35.5,2657,54.2,31,2.27701e-06,0.0000000304
36,2657,56.6,31.4,2.33681e-06,0.0000000304
36.5,2657,59,31.8,2.39704e-06,0.0000000304
37,2657,61.5,32.2,2.45767e-06,0.0000000304
37.5,2657,64.1,32.6,2.51871e-06,0.0000000304
38,2657,66.7,33,2.58015e-06,0.0000000304
38.5,2657,69.3,33.4,2.64198e-06,0.0000000304
39,2657,72,33.7,2.7042e-06,0.0000000304
39.5,2657,74.7,34.1,2.76679e-06,0.0000000304
40,2657,77.5,34.5,2.82975e-06,0.0000000304
40.5,2657,80.4,34.9,2.89309e-06,0.0000000304
41,2657,83.3,35.3,2.95678e-06,0.0000000304
41.5,2657,86.3,35.7,3.02082e-06,0.0000000304
42,2657,89.3,36.1,3.08521e-06,0.0000000304
42.5,2657,92.3,36.4,3.14994e-06,0.0000000304
43,2657,95.4,36.8,3.215e-06,0.0000000305
43.5,2657,98.5,37.2,3.28039e-06,0.0000000305
44,2657,102,37.6,3.3461e-06,0.0000000305
44.5,2657,105,38,3.41212e-06,0.0000000305
45,2657,108,38.4,3.47846e-06,0.0000000305
45.5,2657,111,38.7,3.5451e-06,0.0000000305
46,2657,115,39.1,3.61203e-06,0.0000000305
46.5,2657,118,39.5,3.67925e-06,0.0000000306
47,2657,121,39.8,3.74676e-06,0.0000000306
47.5,2657,125,40.2,3.81455e-06,0.0000000306
48,2657,128,40.6,3.88261e-06,0.0000000306
48.5,2657,132,40.9,3.95093e-06,0.0000000306
49,2657,135,41.3,4.01952e-06,0.0000000307
49.5,2657,139,41.7,4.08836e-06,0.0000000307
50,2657,142,42,4.15745e-06,0.0000000307
50.5,2657,145,42.3,4.22679e-06,0.0000000307
51,2657,149,42.7,4.29636e-06,0.0000000308
51.5,2657,152,43,4.36616e-06,0.0000000308
52,2657,156,43.3,4.43618e-06,0.0000000308
52.5,2657,160,43.6,4.50643e-06,0.0000000309
53,2657,163,44,4.57689e-06,0.0000000309
53.5,2657,167,44.3,4.64757e-06,0.0000000309
54,2657,170,44.6,4.71844e-06,0.000000031
54.5,2657,174,44.9,4.78951e-06,0.000000031
55,2657,177,45.2,4.86078e-06,0.000000031
55.5,2657,181,45.5,4.93223e-06,0.0000000311
56,2657,185,45.8,5.00386e-06,0.0000000311
56.5,2657,188,46.1,5.07567e-06,0.0000000312
57,2657,192,46.4,5.14764e-06,0.0000000312
57.5,2657,196,46.7,5.21979e-06,0.0000000313
58,2657,199,47,5.29209e-06,0.0000000313
58.5,2657,203,47.3,5.36455e-06,0.0000000314
59,2657,207,47.6,5.43716e-06,0.0000000314
59.5,2657,210,47.9,5.50991e-06,0.0000000314
60,2657,214,48.2,5.5828e-06,0.0000000315
60.5,2657,218,48.5,5.65582e-06,0.0000000316
61,2657,221,48.8,5.72897e-06,0.0000000316
61.5,2657,225,49.1,5.80225e-06,0.0000000317
62,2657,229,49.4,5.87564e-06,0.0000000317
62.5,2657,232,49.7,5.94915e-06,0.0000000318
63,2657,236,50,6.02276e-06,0.0000000318
63.5,2657,240,50.3,6.09648e-06,0.0000000319
64,2657,243,50.6,6.1703e-06,0.0000000319
64.5,2657,247,50.9,6.2442e-06,0.000000032
65,2657,251,51.2,6.3182e-06,0.0000000321
65.5,2657,254,51.5,6.39229e-06,0.0000000321
66,2657,258,51.8,6.46645e-06,0.0000000322
66.5,2657,262,52,6.54068e-06,0.0000000322
67,2657,265,52.3,6.61498e-06,0.0000000323
67.5,2657,269,52.6,6.68935e-06,0.0000000324
68,2657,273,52.9,6.76378e-06,0.0000000324
68.5,2657,276,53.2,6.83827e-06,0.0000000325
69,2657,280,53.4,6.9128e-06,0.0000000325
69.5,2657,283,53.7,6.98738e-06,0.0000000326
70,2657,287,54,7.062e-06,0.0000000327
70.5,2657,291,54.3,7.13666e-06,0.0000000327
71,2657,294,54.5,7.21135e-06,0.0000000328
71.5,2657,298,54.8,7.28607e-06,0.0000000328
72,2657,301,55.1,7.36081e-06,0.0000000329
72.5,2657,305,55.3,7.43558e-06,0.0000000329
73,2657,308,55.6,7.51035e-06,0.000000033
73.5,2657,312,55.9,7.58514e-06,0.000000033
74,2657,315,56.1,7.65993e-06,0.0000000331
74.5,2657,319,56.4,7.73473e-06,0.0000000331
75,2657,323,56.6,7.80952e-06,0.0000000332
75.5,2657,326,56.9,7.8843e-06,0.0000000332
76,2657,329,57.1,7.95908e-06,0.0000000333
76.5,2657,333,57.4,8.03383e-06,0.0000000333
77,2657,336,57.6,8.10857e-06,0.0000000334
77.5,2657,340,57.8,8.18329e-06,0.0000000334
78,2657,343,58.1,8.25798e-06,0.0000000335
78.5,2657,347,58.3,8.33264e-06,0.0000000335
79,2657,350,58.5,8.40726e-06,0.0000000336
79.5,2657,354,58.8,8.48184e-06,0.0000000336
80,2657,357,59,8.55638e-06,0.0000000337
80.5,2657,360,59.2,8.63087e-06,0.0000000338
81,2657,364,59.4,8.70531e-06,0.0000000338
81.5,2657,367,59.6,8.7797e-06,0.0000000339
82,2657,370,59.8,8.85402e-06,0.0000000339
82.5,2657,374,60.1,8.92828e-06,0.000000034
83,2657,377,60.3,9.00248e-06,0.0000000341
83.5,2657,380,60.5,9.07661e-06,0.0000000341
84,2657,384,60.7,9.15066e-06,0.0000000342
84.5,2657,387,60.9,9.22464e-06,0.0000000342
85,2657,390,61.1,9.29853e-06,0.0000000343
85.5,2657,393,61.3,9.37234e-06,0.0000000344
86,2657,397,61.5,9.44606e-06,0.0000000344
86.5,2657,400,61.7,9.51969e-06,0.0000000345
87,2657,403,61.8,9.59322e-06,0.0000000345
87.5,2657,406,62,9.66665e-06,0.0000000346
88,2657,409,62.2,9.73998e-06,0.0000000347
88.5,2657,413,62.4,9.81321e-06,0.0000000347
89,2657,416,62.6,9.88632e-06,0.0000000348
89.5,2657,419,62.8,9.95933e-06,0.0000000348
90,2657,422,63,1.00322e-05,0.0000000349
90.5,2657,425,63.2,1.0105e-05,0.000000035
91,2657,428,63.4,1.01776e-05,0.000000035
91.5,2657,431,63.6,1.02501e-05,0.0000000351
92,2657,434,63.8,1.03225e-05,0.0000000351
92.5,2657,437,64,1.03948e-05,0.0000000352
93,2657,440,64.2,1.04669e-05,0.0000000352
93.5,2657,443,64.4,1.05389e-05,0.0000000353
94,2657,446,64.6,1.06107e-05,0.0000000354
94.5,2657,449,64.8,1.06824e-05,0.0000000354
95,2657,452,65,1.0754e-05,0.0000000355
95.5,2657,455,65.2,1.08254e-05,0.0000000355
96,2657,458,65.4,1.08966e-05,0.0000000356
96.5,2657,461,65.6,1.09677e-05,0.0000000356
97,2657,464,65.8,1.10386e-05,0.0000000357
97.5,2657,467,66,1.11094e-05,0.0000000358
98,2657,470,66.2,1.118e-05,0.0000000358
98.5,2657,473,66.4,1.12504e-05,0.0000000359
99,2657,475,66.6,1.13207e-05,0.0000000359
99.5,2657,478,66.8,1.13908e-05,0.000000036
100,2657,481,67,1.14607e-05,0.000000036
100.5,2657,484,67.2,1.15304e-05,0.0000000361
101,2657,487,67.4,1.15999e-05,0.0000000362
101.5,2657,489,67.6,1.16693e-05,0.0000000362
102,2657,492,67.8,1.17385e-05,0.0000000363
102.5,2657,495,67.9,1.18074e-05,0.0000000363
103,2657,497,68.1,1.18762e-05,0.0000000364
103.5,2657,500,68.3,1.19448e-05,0.0000000364
104,2657,503,68.5,1.20132e-05,0.0000000365
104.5,2657,505,68.7,1.20814e-05,0.0000000366
105,2657,508,68.9,1.21494e-05,0.0000000366
105.5,2657,510,69,1.22172e-05,0.0000000367
106,2657,513,69.2,1.22848e-05,0.0000000367
106.5,2657,516,69.4,1.23521e-05,0.0000000368
107,2657,518,69.6,1.24193e-05,0.0000000369
107.5,2657,521,69.8,1.24862e-05,0.0000000369
108,2657,523,69.9,1.2553e-05,0.000000037
108.5,2657,526,70.1,1.26195e-05,0.000000037
109,2657,528,70.3,1.26858e-05,0.0000000371
109.5,2657,531,70.5,1.27518e-05,0.0000000371
110,2657,533,70.7,1.28176e-05,0.0000000372
110.5,2657,535,70.8,1.28833e-05,0.0000000373
111,2657,538,71,1.29486e-05,0.0000000373
111.5,2657,540,71.2,1.30138e-05,0.0000000374
112,2657,543,71.3,1.30787e-05,0.0000000374
112.5,2657,545,71.5,1.31434e-05,0.0000000375
113,2657,547,71.7,1.32078e-05,0.0000000376
113.5,2657,550,71.9,1.3272e-05,0.0000000376
114,2657,552,72,1.33359e-05,0.0000000377
114.5,2657,554,72.2,1.33996e-05,0.0000000377
115,2657,556,72.4,1.34631e-05,0.0000000378
115.5,2657,559,72.5,1.35263e-05,0.0000000378
116,2657,561,72.7,1.35893e-05,0.0000000379
116.5,2657,563,72.9,1.3652e-05,0.000000038
117,2657,565,73,1.37144e-05,0.000000038
117.5,2657,568,73.2,1.37766e-05,0.0000000381
118,2657,570,73.4,1.38386e-05,0.0000000381
118.5,2657,572,73.5,1.39003e-05,0.0000000382
119,2657,574,73.7,1.39617e-05,0.0000000383
119.5,2657,576,73.9,1.40228e-05,0.0000000383
120,2657,579,74,1.40837e-05,0.0000000384
120.5,2657,581,74.2,1.41444e-05,0.0000000384
121,2657,583,74.3,1.42047e-05,0.0000000385
121.5,2657,585,74.5,1.42648e-05,0.0000000386
122,2657,587,74.7,1.43247e-05,0.0000000386
122.5,2657,589,74.8,1.43842e-05,0.0000000387
123,2657,591,75,1.44435e-05,0.0000000387
123.5,2657,593,75.1,1.45025e-05,0.0000000388
124,2657,595,75.3,1.45612e-05,0.0000000388
124.5,2657,597,75.5,1.46197e-05,0.0000000389
125,2657,599,75.6,1.46779e-05,0.000000039
125.5,2657,601,75.8,1.47358e-05,0.000000039
126,2657,603,75.9,1.47934e-05,0.0000000391
126.5,2657,605,76.1,1.48507e-05,0.0000000391
127,2657,607,76.2,1.49078e-05,0.0000000392
127.5,2657,609,76.4,1.49645e-05,0.0000000393
128,2657,611,76.5,1.5021e-05,0.0000000393
128.5,2657,613,76.7,1.50772e-05,0.0000000394
129,2657,615,76.8,1.51331e-05,0.0000000394
129.5,2657,617,77,1.51887e-05,0.0000000395
130,2657,618,77.2,1.5244e-05,0.0000000396
130.5,2657,620,77.3,1.52991e-05,0.0000000396
131,2657,622,77.5,1.53538e-05,0.0000000397
131.5,2657,624,77.6,1.54082e-05,0.0000000397
132,2657,626,77.8,1.54624e-05,0.0000000398
132.5,2657,628,77.9,1.55162e-05,0.0000000399
133,2657,629,78.1,1.55698e-05,0.0000000399
133.5,2657,631,78.2,1.56231e-05,0.00000004
134,2657,633,78.4,1.5676e-05,0.00000004
134.5,2657,635,78.5,1.57287e-05,0.0000000401
135,2657,636,78.7,1.57811e-05,0.0000000402
135.5,2657,638,78.8,1.58331e-05,0.0000000402
136,2657,640,79,1.58849e-05,0.0000000403
136.5,2657,642,79.1,1.59363e-05,0.0000000403
137,2657,643,79.2,1.59875e-05,0.0000000404
137.5,2657,645,79.4,1.60383e-05,0.0000000405
138,2657,647,79.5,1.60889e-05,0.0000000405
138.5,2657,648,79.7,1.61391e-05,0.0000000406
139,2657,650,79.8,1.61891e-05,0.0000000406
139.5,2657,652,80,1.62387e-05,0.0000000407
140,2657,653,80.1,1.6288e-05,0.0000000408
140.5,2657,655,80.3,1.63371e-05,0.0000000408
141,2657,657,80.4,1.63858e-05,0.0000000409
141.5,2657,658,80.6,1.64342e-05,0.0000000409
142,2657,660,80.7,1.64823e-05,0.000000041
142.5,2657,661,80.9,1.65301e-05,0.0000000411
143,2657,663,81,1.65775e-05,0.0000000411
143.5,2657,665,81.1,1.66247e-05,0.0000000412
144,2657,666,81.3,1.66716e-05,0.0000000412
144.5,2657,668,81.4,1.67181e-05,0.0000000413
145,2657,669,81.6,0.00001676436,0.0000000414
145.5,2657,671,81.7,1.68103e-05,0.0000000414
146,2657,672,81.9,1.68559e-05,0.0000000415
146.5,2657,674,82,1.69012e-05,0.0000000415
147,2657,675,82.1,1.69462e-05,0.0000000416
147.5,2657,677,82.3,1.69909e-05,0.0000000417
148,2657,678,82.4,1.70353e-05,0.0000000417
148.5,2657,680,82.6,1.70793e-05,0.0000000418
149,2657,681,82.7,1.71231e-05,0.0000000418
149.5,2657,682,82.8,1.71665e-05,0.0000000419
150,2657,684,83,1.72096e-05,0.000000042
150.5,2657,686,83.2,1.72524e-05,0.000000042
151,2657,687,83.3,1.72949e-05,0.0000000421
151.5,2657,689,83.5,1.73371e-05,0.0000000421
152,2657,690,83.6,1.7379e-05,0.0000000422
152.5,2657,691,83.8,1.74206e-05,0.0000000423
153,2657,693,83.9,1.74618e-05,0.0000000423
153.5,2657,694,84.1,1.75028e-05,0.0000000424
154,2657,696,84.2,1.75434e-05,0.0000000424
154.5,2657,697,84.4,1.75837e-05,0.0000000425
155,2657,699,84.5,1.76237e-05,0.0000000426
155.5,2657,700,84.7,1.76634e-05,0.0000000426
156,2657,702,84.8,1.77028e-05,0.0000000427
156.5,2657,703,85,1.77419e-05,0.0000000427
157,2657,704,85.1,1.77807e-05,0.0000000428
157.5,2657,706,85.3,1.78192e-05,0.0000000428
158,2657,707,85.4,1.78573e-05,0.0000000429
158.5,2657,708,85.6,1.78952e-05,0.000000043
159,2657,710,85.7,1.79327e-05,0.000000043
159.5,2657,711,85.9,1.79699e-05,0.0000000431
160,2657,713,86,1.80068e-05,0.0000000431
160.5,2657,714,86.2,1.80435e-05,0.0000000432
161,2657,715,86.4,1.80798e-05,0.0000000433
161.5,2657,717,86.5,1.81158e-05,0.0000000433
162,2657,718,86.7,1.81515e-05,0.0000000434
162.5,2657,719,86.8,1.81869e-05,0.0000000434
163,2657,720,87,1.8222e-05,0.0000000435
163.5,2657,722,87.1,1.82568e-05,0.0000000436
164,2657,723,87.3,1.82912e-05,0.0000000436
164.5,2657,724,87.4,1.83254e-05,0.0000000437
165,2657,726,87.6,1.83593e-05,0.0000000437
165.5,2657,727,87.7,1.83929e-05,0.0000000438
166,2657,728,87.9,1.84262e-05,0.0000000439
166.5,2657,729,88,1.84592e-05,0.0000000439
167,2657,731,88.2,1.84919e-05,0.000000044
167.5,2657,732,88.3,1.85243e-05,0.000000044
168,2657,733,88.5,1.85564e-05,0.0000000441
168.5,2657,734,88.6,1.85882e-05,0.0000000442
169,2657,735,88.8,1.86197e-05,0.0000000442
169.5,2657,737,88.9,1.86509e-05,0.0000000443
170,2657,738,89.1,1.86818e-05,0.0000000443
170.5,2657,739,89.2,1.87124e-05,0.0000000444
171,2657,740,89.4,1.87428e-05,0.0000000444
171.5,2657,741,89.5,1.87728e-05,0.0000000445
172,2657,743,89.7,1.88026e-05,0.0000000446
172.5,2657,744,89.8,1.88321e-05,0.0000000446
173,2657,745,90,1.88613e-05,0.0000000447
173.5,2657,746,90.1,1.88902e-05,0.0000000447
174,2657,747,90.3,1.89188e-05,0.0000000448
174.5,2657,748,90.4,1.89471e-05,0.0000000449
175,2657,749,90.6,1.89752e-05,0.0000000449
175.5,2657,750,90.7,1.9003e-05,0.000000045
176,2657,752,90.9,1.90305e-05,0.000000045
176.5,2657,753,91,1.90577e-05,0.0000000451
177,2657,754,91.2,1.90847e-05,0.0000000452
177.5,2657,755,91.3,1.91113e-05,0.0000000452
178,2657,756,91.5,1.91377e-05,0.0000000453
178.5,2657,757,91.6,1.91639e-05,0.0000000453
179,2657,758,91.8,1.91897e-05,0.0000000454
179.5,2657,759,91.9,1.92153e-05,0.0000000455
180,2657,760,92.1,1.92406e-05,0.0000000455
180.5,2657,761,92.2,1.92657e-05,0.0000000456
181,2657,762,92.4,1.92905e-05,0.0000000456
181.5,2657,763,92.5,1.9315e-05,0.0000000457
182,2657,764,92.7,1.93393e-05,0.0000000458
182.5,2657,765,92.8,1.93633e-05,0.0000000458
183,2657,766,93,1.9387e-05,0.0000000459
183.5,2657,767,93.1,1.94105e-05,0.0000000459
184,2657,768,93.2,1.94338e-05,0.000000046
184.5,2657,769,93.4,1.94568e-05,0.0000000461
185,2657,770,93.5,1.94795e-05,0.0000000461
185.5,2657,771,93.7,1.9502e-05,0.0000000462
186,2657,772,93.8,1.95242e-05,0.0000000462
186.5,2657,773,94,1.95462e-05,0.0000000463
187,2657,774,94.1,1.95679e-05,0.0000000463
187.5,2657,775,94.3,1.95894e-05,0.0000000464
188,2657,776,94.4,1.96107e-05,0.0000000465
188.5,2657,777,94.6,1.96317e-05,0.0000000465
189,2657,778,94.7,1.96525e-05,0.0000000466
189.5,2657,779,94.9,1.9673e-05,0.0000000466
190,2657,780,95,1.96933e-05,0.0000000467
190.5,2657,781,95.2,1.97134e-05,0.0000000468
191,2657,782,95.3,1.97333e-05,0.0000000468
191.5,2657,782,95.5,1.97529e-05,0.0000000469
192,2657,783,95.6,1.97723e-05,0.0000000469
192.5,2657,784,95.8,1.97915e-05,0.000000047
193,2657,785,95.9,1.98104e-05,0.0000000471
193.5,2657,786,96.1,1.98291e-05,0.0000000471
194,2657,787,96.2,1.98477e-05,0.0000000472
194.5,2657,788,96.4,1.98659e-05,0.0000000472
195,2657,789,96.5,1.9884e-05,0.0000000473
195.5,2657,789,96.7,1.99019e-05,0.0000000474
196,2657,790,96.8,1.99196e-05,0.0000000474
196.5,2657,791,97,1.9937e-05,0.0000000475
197,2657,792,97.1,1.99543e-05,0.0000000475
197.5,2657,793,97.3,1.99713e-05,0.0000000476
198,2657,794,97.4,1.99882e-05,0.0000000477
198.5,2657,795,97.6,2.00048e-05,0.0000000477
199,2657,795,97.7,2.00213e-05,0.0000000478
199.5,2657,796,97.9,2.00376e-05,0.0000000478
200,2657,797,98,2.00536e-05,0.0000000479
200.5,2657,798,98.1,2.00695e-05,0.0000000479
201,2657,799,98.3,2.00852e-05,0.000000048
201.5,2657,799,98.4,2.01007e-05,0.0000000481
202,2657,800,98.6,2.01161e-05,0.0000000481
202.5,2657,801,98.7,2.01312e-05,0.0000000482
203,2657,802,98.9,2.01462e-05,0.0000000482
203.5,2657,803,99,2.0161e-05,0.0000000483
204,2657,803,99.2,2.01757e-05,0.0000000484
204.5,2657,804,99.3,2.01901e-05,0.0000000484
205,2657,805,99.5,2.02044e-05,0.0000000485
205.5,2657,806,99.6,2.02186e-05,0.0000000485
206,2657,806,99.8,2.02326e-05,0.0000000486
206.5,2657,807,99.9,2.02464e-05,0.0000000487
207,2657,808,100,2.02601e-05,0.0000000487
207.5,2657,809,100,2.02736e-05,0.0000000488
208,2657,809,100,2.02869e-05,0.0000000488
208.5,2657,810,101,2.03002e-05,0.0000000489
209,2657,811,101,2.03132e-05,0.000000049
209.5,2657,812,101,2.03262e-05,0.000000049
210,2657,812,101,2.03389e-05,0.0000000491
210.5,2657,813,101,2.03516e-05,0.0000000491
211,2657,814,101,2.03641e-05,0.0000000492
211.5,2657,815,101,2.03765e-05,0.0000000493
212,2657,815,102,2.03888e-05,0.0000000493
212.5,2657,816,102,2.04009e-05,0.0000000494
213,2657,817,102,2.0413e-05,0.0000000494
213.5,2657,817,102,2.04249e-05,0.0000000495
214,2657,818,102,2.04366e-05,0.0000000496
214.5,2657,819,102,2.04483e-05,0.0000000496
215,2657,819,102,2.04599e-05,0.0000000497
215.5,2657,820,103,2.04713e-05,0.0000000497
216,2657,821,103,2.04827e-05,0.0000000498
216.5,2657,821,103,2.0494e-05,0.0000000498
217,2657,822,103,2.05051e-05,0.0000000499
217.5,2657,823,103,2.05162e-05,0.00000005
218,2657,823,103,2.05271e-05,0.00000005
218.5,2657,824,104,2.0538e-05,0.0000000501
219,2657,825,104,2.05488e-05,0.0000000501
219.5,2657,825,104,2.05595e-05,0.0000000502
220,2657,826,104,2.05702e-05,0.0000000503
220.5,2657,827,104,2.05808e-05,0.0000000503
221,2657,827,104,2.05912e-05,0.0000000504
221.5,2657,828,104,2.06017e-05,0.0000000504
222,2657,829,105,2.0612e-05,0.0000000505
222.5,2657,829,105,2.06223e-05,0.0000000506
223,2657,830,105,2.06326e-05,0.0000000506
223.5,2657,830,105,2.06428e-05,0.0000000507
224,2657,831,105,2.06529e-05,0.0000000507
224.5,2657,832,105,2.0663e-05,0.0000000508
225,2657,832,105,2.0673e-05,0.0000000509
225.5,2657,833,106,2.0683e-05,0.0000000509
226,2657,833,106,2.0693e-05,0.000000051
226.5,2657,834,106,2.07029e-05,0.000000051
227,2657,835,106,2.07128e-05,0.0000000511
227.5,2657,835,106,2.07227e-05,0.0000000512
228,2657,836,106,2.07325e-05,0.0000000512
228.5,2657,836,107,2.07423e-05,0.0000000513
229,2657,837,107,2.07521e-05,0.0000000513
229.5,2657,838,107,2.07619e-05,0.0000000514
230,2657,838,107,2.07717e-05,0.0000000514
230.5,2657,839,107,2.07815e-05,0.0000000515
231,2657,839,107,2.07913e-05,0.0000000516
231.5,2657,840,107,2.08011e-05,0.0000000516
232,2657,840,108,2.08108e-05,0.0000000517
232.5,2657,841,108,2.08206e-05,0.0000000517
233,2657,841,108,2.08304e-05,0.0000000518
233.5,2657,842,108,2.08403e-05,0.0000000519
234,2657,843,108,2.08501e-05,0.0000000519
234.5,2657,843,108,2.086e-05,0.000000052
235,2657,844,108,2.08699e-05,0.000000052
235.5,2657,844,109,2.08798e-05,0.0000000521
236,2657,845,109,2.08898e-05,0.0000000522
236.5,2657,845,109,2.08998e-05,0.0000000522
237,2657,846,109,2.09098e-05,0.0000000523
237.5,2657,846,109,2.09199e-05,0.0000000523
238,2657,847,109,2.093e-05,0.0000000524
238.5,2657,847,110,2.09402e-05,0.0000000525
239,2657,848,110,2.09505e-05,0.0000000525
239.5,2657,848,110,2.09608e-05,0.0000000526
240,2657,849,110,2.09712e-05,0.0000000526
240.5,2657,850,110,2.09817e-05,0.0000000527
241,2657,850,110,2.09922e-05,0.0000000528
241.5,2657,851,110,2.10028e-05,0.0000000528
242,2657,851,111,2.10135e-05,0.0000000529
242.5,2657,852,111,2.10243e-05,0.0000000529
243,2657,852,111,2.10352e-05,0.000000053
243.5,2657,853,111,2.10462e-05,0.000000053
244,2657,853,111,2.10572e-05,0.0000000531
244.5,2657,854,111,2.10684e-05,0.0000000532
245,2657,854,111,2.10797e-05,0.0000000532
245.5,2657,855,112,2.10911e-05,0.0000000533
246,2657,855,112,2.11026e-05,0.0000000533
246.5,2657,856,112,2.11143e-05,0.0000000534
247,2657,856,112,2.1126e-05,0.0000000535
247.5,2657,857,112,2.11379e-05,0.0000000535
248,2657,857,112,2.115e-05,0.0000000536
248.5,2657,858,113,2.11621e-05,0.0000000536
249,2657,858,113,2.11745e-05,0.0000000537
249.5,2657,859,113,2.11869e-05,0.0000000538
250,2657,859,113,2.11995e-05,0.0000000538
250.5,2657,859,113,2.12123e-05,0.0000000539
251,2657,860,113,2.12252e-05,0.0000000539
251.5,2657,860,113,2.12383e-05,0.000000054
252,2657,861,114,2.12516e-05,0.0000000541
252.5,2657,861,114,2.1265e-05,0.0000000541
253,2657,862,114,2.12786e-05,0.0000000542
253.5,2657,862,114,2.12924e-05,0.0000000542
254,2657,863,114,2.13064e-05,0.0000000543
254.5,2657,863,114,2.13206e-05,0.0000000544
255,2657,864,115,2.1335e-05,0.0000000544
255.5,2657,864,115,2.13496e-05,0.0000000545
256,2657,865,115,2.13644e-05,0.0000000545
256.5,2657,865,115,2.13794e-05,0.0000000546
257,2657,866,115,2.13946e-05,0.0000000547
257.5,2657,866,115,2.141e-05,0.0000000547
258,2657,867,115,2.14257e-05,0.0000000548
258.5,2657,867,116,2.14416e-05,0.0000000548
259,2657,868,116,2.14577e-05,0.0000000549
259.5,2657,868,116,2.1474e-05,0.0000000549
260,2657,869,116,2.14906e-05,0.000000055
260.5,2657,869,116,2.15075e-05,0.0000000551
261,2657,869,116,2.15246e-05,0.0000000551
261.5,2657,870,117,2.1542e-05,0.0000000552
262,2657,870,117,2.15596e-05,0.0000000552
262.5,2657,871,117,2.15775e-05,0.0000000553
263,2657,871,117,2.15957e-05,0.0000000554
263.5,2657,872,117,2.16141e-05,0.0000000554
264,2657,872,117,2.16329e-05,0.0000000555
264.5,2657,873,117,2.16519e-05,0.0000000555
265,2657,873,118,2.16712e-05,0.0000000556
265.5,2657,873,118,2.16908e-05,0.0000000557
266,2657,874,118,2.17107e-05,0.0000000557
266.5,2657,874,118,2.17309e-05,0.0000000558
267,2657,875,118,2.17515e-05,0.0000000558
267.5,2657,875,118,2.17723e-05,0.0000000559
268,2657,876,118,2.17935e-05,0.000000056
268.5,2657,876,119,2.1815e-05,0.000000056
269,2657,877,119,2.18368e-05,0.0000000561
269.5,2657,877,119,2.1859e-05,0.0000000561
270,2657,877,119,2.18815e-05,0.0000000562
270.5,2657,878,119,2.19044e-05,0.0000000563
271,2657,878,119,2.19276e-05,0.0000000563
271.5,2657,879,120,2.19512e-05,0.0000000564
272,2657,879,120,2.19751e-05,0.0000000564
272.5,2657,880,120,2.19994e-05,0.0000000565
273,2657,880,120,2.20241e-05,0.0000000566
273.5,2657,880,120,2.20492e-05,0.0000000566
274,2657,881,120,2.20746e-05,0.0000000567
274.5,2657,881,120,2.21004e-05,0.0000000567
275,2657,882,121,2.21267e-05,0.0000000568
275.5,2657,882,121,2.21533e-05,0.0000000568
276,2657,883,121,2.21803e-05,0.0000000569
276.5,2657,883,121,2.22078e-05,0.000000057
277,2657,883,121,2.22357e-05,0.000000057
277.5,2657,884,121,2.22639e-05,0.0000000571
278,2657,884,122,2.22927e-05,0.0000000571
278.5,2657,885,122,2.23218e-05,0.0000000572
279,2657,885,122,2.23514e-05,0.0000000573
279.5,2657,885,122,2.23814e-05,0.0000000573
280,2657,886,122,2.24119e-05,0.0000000574
280.5,2657,886,122,2.24429e-05,0.0000000574
281,2657,887,122,2.24743e-05,0.0000000575
281.5,2657,887,123,2.25061e-05,0.0000000576
282,2657,888,123,2.25384e-05,0.0000000576
282.5,2657,888,123,2.25713e-05,0.0000000577
283,2657,888,123,2.26046e-05,0.0000000577
283.5,2657,889,123,2.26383e-05,0.0000000578
284,2657,889,123,2.26726e-05,0.0000000579
284.5,2657,890,123,2.27074e-05,0.0000000579
285,2657,890,124,2.27427e-05,0.000000058
285.5,2657,890,124,2.27784e-05,0.000000058
286,2657,891,124,2.28148e-05,0.0000000581
286.5,2657,891,124,2.28516e-05,0.0000000582
287,2657,892,124,2.28889e-05,0.0000000582
287.5,2657,892,124,2.29268e-05,0.0000000583
288,2657,892,124,2.29653e-05,0.0000000583
288.5,2657,893,125,2.30042e-05,0.0000000584
289,2657,893,125,2.30437e-05,0.0000000584
289.5,2657,894,125,2.30838e-05,0.0000000585
290,2657,894,125,2.31245e-05,0.0000000586
290.5,2657,894,125,2.31657e-05,0.0000000586
291,2657,895,125,2.32075e-05,0.0000000587
291.5,2657,895,126,2.32498e-05,0.0000000587
292,2657,896,126,2.32928e-05,0.0000000588
292.5,2657,896,126,2.33363e-05,0.0000000589
293,2657,896,126,2.33804e-05,0.0000000589
293.5,2657,897,126,2.34252e-05,0.000000059
294,2657,897,126,2.34705e-05,0.000000059
294.5,2657,898,126,2.35165e-05,0.0000000591
295,2657,898,127,2.35631e-05,0.0000000592
295.5,2657,898,127,2.36103e-05,0.0000000592
296,2657,899,127,2.36581e-05,0.0000000593
296.5,2657,899,127,2.37066e-05,0.0000000593
297,2657,900,127,2.37557e-05,0.0000000594
297.5,2657,900,127,2.38055e-05,0.0000000595
298,2657,900,127,2.38559e-05,0.0000000595
298.5,2657,901,128,2.3907e-05,0.0000000596
299,2657,901,128,2.39588e-05,0.0000000596
299.5,2657,902,128,2.40112e-05,0.0000000597
300,2657,902,128,2.40644e-05,0.0000000598