File: SolidProps/lib/ALUMINUM_ALLOY_6061-T6.csv
T/K,rho/(kg/m3),cp/(J/(kg.K)),K/(W/(m.K)),alpha_thermal/(1/K),resistivity/(ohm.m)
1,2712.6,0.051,2.2,0,0.0000000138
1.5,2712.6,0.0773,3.46,0,0.0000000138
2,2712.6,0.108,4.7,0,0.0000000138
2.5,2712.6,0.143,5.93,0,0.0000000138
3,2712.6,0.184,7.14,0,0.0000000138
3.5,2712.6,0.229,8.34,0,0.0000000138
4,2712.6,0.28,9.53,0,0.0000000138
4.5,2712.6,0.337,10.7,0,0.0000000138
5,2712.6,0.388,11.9,0,0.0000000138
5.5,2712.6,0.448,13.1,0,0.0000000138
6,2712.6,0.515,14.3,0,0.0000000138
6.5,2712.6,0.59,15.5,0,0.0000000138
7,2712.6,0.673,16.6,0,0.0000000138
7.5,2712.6,0.765,17.8,0,0.0000000138
8,2712.6,0.867,19,0,0.0000000138
8.5,2712.6,0.981,20.2,0,0.0000000138
9,2712.6,1.11,21.4,0,0.0000000138
9.5,2712.6,1.25,22.5,0,0.0000000138
10,2712.6,1.4,23.8,0,0.0000000138
10.5,2712.6,1.56,25.1,0,0.0000000138
11,2712.6,1.74,26.4,0,0.0000000138
11.5,2712.6,1.93,27.7,0,0.0000000138
12,2712.6,2.14,29,0,0.0000000138
12.5,2712.6,2.37,30.3,0,0.0000000138
13,2712.6,2.62,31.7,0,0.0000000138
13.5,2712.6,2.89,33,0,0.0000000138
14,2712.6,3.18,34.3,0,0.0000000138
14.5,2712.6,3.5,35.7,0,0.0000000138
15,2712.6,3.84,37,0,0.0000000138
15.5,2712.6,4.21,38.3,0,0.0000000138
16,2712.6,4.61,39.7,0,0.0000000138
16.5,2712.6,5.03,41,0,0.0000000138
17,2712.6,5.49,42.3,0,0.0000000138
17.5,2712.6,5.97,43.6,0,0.0000000138
18,2712.6,6.49,45,1.23136e-08,0.0000000138
18.5,2712.6,7.04,46.3,3.83455e-08,0.0000000138
19,2712.6,7.62,47.5,6.63027e-08,0.0000000138
19.5,2712.6,8.24,48.9,9.61461e-08,0.0000000138
20,2712.6,8.9,50.1,1.27837e-07,0.0000000139
20.5,2712.6,9.6,51.3,1.61338e-07,0.0000000139
21,2712.6,10.3,52.4,1.96612e-07,0.0000000139
21.5,2712.6,11.1,53.5,2.3362e-07,0.0000000139
22,2712.6,11.9,54.6,2.72326e-07,0.0000000139
22.5,2712.6,12.8,55.8,3.12695e-07,0.0000000139
23,2712.6,13.7,56.8,3.54689e-07,0.0000000139
23.5,2712.6,14.7,57.9,3.98275e-07,0.0000000139
24,2712.6,15.7,59,4.43416e-07,0.0000000139
24.5,2712.6,16.7,60.1,4.90078e-07,0.0000000139
25,2712.6,17.8,61.1,5.38228e-07,0.0000000139
25.5,2712.6,18.9,62.1,5.8783e-07,0.0000000139
26,2712.6,20.1,63.2,6.38852e-07,0.0000000139
26.5,2712.6,21.4,64.2,6.91261e-07,0.0000000139
27,2712.6,22.6,65.2,7.45025e-07,0.0000000139
27.5,2712.6,24,66.2,8.00111e-07,0.0000000139
28,2712.6,25.4,67.2,8.56487e-07,0.0000000139
28.5,2712.6,26.8,68.1,9.14122e-07,0.0000000139
29,2712.6,28.3,69.1,9.72986e-07,0.0000000139
29.5,2712.6,29.8,70,1.03305e-06,0.0000000139
30,2712.6,31.5,71,1.09428e-06,0.000000014
30.5,2712.6,33.3,72,1.15664e-06,0.000000014
31,2712.6,35.1,72.9,1.22012e-06,0.000000014
31.5,2712.6,37,73.9,1.28467e-06,0.000000014
32,2712.6,39,74.9,1.35028e-06,0.000000014
32.5,2712.6,41,75.8,1.4169e-06,0.000000014
33,2712.6,43.1,76.7,1.48453e-06,0.000000014
33.5,2712.6,45.2,77.6,1.55312e-06,0.000000014
34,2712.6,47.4,78.6,1.62264e-06,0.000000014
34.5,2712.6,49.6,79.5,1.69309e-06,0.000000014
35,2712.6,51.9,80.3,1.76441e-06,0.000000014
35.5,2712.6,54.2,81.2,1.8366e-06,0.000000014
36,2712.6,56.6,82.1,1.90963e-06,0.000000014
36.5,2712.6,59,82.9,1.98346e-06,0.000000014
37,2712.6,61.5,83.8,2.05808e-06,0.000000014
37.5,2712.6,64.1,84.6,2.13345e-06,0.000000014
38,2712.6,66.7,85.4,2.20957e-06,0.000000014
38.5,2712.6,69.3,86.2,2.28639e-06,0.000000014
39,2712.6,72,87,2.3639e-06,0.000000014
39.5,2712.6,74.7,87.8,2.44208e-06,0.000000014
40,2712.6,77.5,88.5,2.52089e-06,0.0000000141
40.5,2712.6,80.4,89.2,2.60033e-06,0.0000000141
41,2712.6,83.3,89.8,2.68036e-06,0.0000000141
41.5,2712.6,86.3,90.5,2.76097e-06,0.0000000141
42,2712.6,89.3,91.1,2.84213e-06,0.0000000141
42.5,2712.6,92.3,91.7,2.92382e-06,0.0000000141
43,2712.6,95.4,92.3,3.00602e-06,0.0000000141
43.5,2712.6,98.5,92.9,3.08871e-06,0.0000000141
44,2712.6,102,93.5,3.17187e-06,0.0000000142
44.5,2712.6,105,94.1,3.25548e-06,0.0000000142
45,2712.6,108,94.7,3.33952e-06,0.0000000142
45.5,2712.6,111,95.2,3.42396e-06,0.0000000142
46,2712.6,115,95.8,3.5088e-06,0.0000000142
46.5,2712.6,118,96.3,3.59401e-06,0.0000000142
47,2712.6,121,96.9,3.67957e-06,0.0000000143
47.5,2712.6,125,97.4,3.76547e-06,0.0000000143
48,2712.6,128,97.9,3.85168e-06,0.0000000143
48.5,2712.6,132,98.4,3.9382e-06,0.0000000143
49,2712.6,135,99,4.02499e-06,0.0000000144
49.5,2712.6,139,99.4,4.11205e-06,0.0000000144
50,2712.6,142,100,4.19935e-06,0.0000000144
50.5,2712.6,145,101,4.28689e-06,0.0000000144
51,2712.6,149,101,4.37464e-06,0.0000000145
51.5,2712.6,152,102,4.46259e-06,0.0000000145
52,2712.6,156,103,4.55072e-06,0.0000000145
52.5,2712.6,160,103,4.63902e-06,0.0000000146
53,2712.6,163,104,4.72747e-06,0.0000000146
53.5,2712.6,167,104,4.81606e-06,0.0000000146
54,2712.6,170,105,4.90477e-06,0.0000000146
54.5,2712.6,174,106,4.99359e-06,0.0000000147
55,2712.6,177,106,5.0825e-06,0.0000000147
55.5,2712.6,181,107,5.17149e-06,0.0000000148
56,2712.6,185,107,5.26055e-06,0.0000000148
56.5,2712.6,188,108,5.34966e-06,0.0000000148
57,2712.6,192,108,5.4388e-06,0.0000000149
57.5,2712.6,196,109,5.52798e-06,0.0000000149
58,2712.6,199,109,5.61717e-06,0.0000000149
58.5,2712.6,203,110,5.70636e-06,0.000000015
59,2712.6,207,110,5.79553e-06,0.000000015
59.5,2712.6,210,111,5.88469e-06,0.0000000151
60,2712.6,214,111,5.97381e-06,0.0000000151
60.5,2712.6,218,111,6.06288e-06,0.0000000151
61,2712.6,221,111,6.1519e-06,0.0000000152
61.5,2712.6,225,112,6.24085e-06,0.0000000152
62,2712.6,229,112,6.32971e-06,0.0000000153
62.5,2712.6,232,112,6.41849e-06,0.0000000153
63,2712.6,236,112,6.50717e-06,0.0000000153
63.5,2712.6,240,112,6.59573e-06,0.0000000154
64,2712.6,243,112,6.68418e-06,0.0000000154
64.5,2712.6,247,112,6.77249e-06,0.0000000155
65,2712.6,251,112,6.86066e-06,0.0000000155
65.5,2712.6,254,112,6.94869e-06,0.0000000155
66,2712.6,258,113,7.03656e-06,0.0000000156
66.5,2712.6,262,113,7.12425e-06,0.0000000156
67,2712.6,265,113,7.21178e-06,0.0000000157
67.5,2712.6,269,113,7.29911e-06,0.0000000157
68,2712.6,273,113,7.38626e-06,0.0000000158
68.5,2712.6,276,113,7.4732e-06,0.0000000158
69,2712.6,280,113,7.55993e-06,0.0000000159
69.5,2712.6,283,113,7.64645e-06,0.0000000159
70,2712.6,287,113,7.73274e-06,0.000000016
70.5,2712.6,291,113,7.8188e-06,0.000000016
71,2712.6,294,113,7.90463e-06,0.0000000161
71.5,2712.6,298,114,7.9902e-06,0.0000000161
72,2712.6,301,114,8.07552e-06,0.0000000162
72.5,2712.6,305,114,8.16059e-06,0.0000000162
73,2712.6,308,114,8.24539e-06,0.0000000163
73.5,2712.6,312,115,8.32991e-06,0.0000000163
74,2712.6,315,115,8.41416e-06,0.0000000164
74.5,2712.6,319,115,8.49812e-06,0.0000000164
75,2712.6,323,116,8.5818e-06,0.0000000165
75.5,2712.6,326,116,8.66517e-06,0.0000000165
76,2712.6,329,116,8.74825e-06,0.0000000166
76.5,2712.6,333,116,8.83102e-06,0.0000000166
77,2712.6,336,117,8.91348e-06,0.0000000167
77.5,2712.6,340,117,8.99562e-06,0.0000000168
78,2712.6,343,117,9.07744e-06,0.0000000168
78.5,2712.6,347,117,9.15894e-06,0.0000000169
79,2712.6,350,118,9.24011e-06,0.0000000169
79.5,2712.6,354,118,9.32094e-06,0.000000017
80,2712.6,357,118,9.40143e-06,0.0000000171
80.5,2712.6,360,118,9.48158e-06,0.0000000171
81,2712.6,364,118,9.56139e-06,0.0000000172
81.5,2712.6,367,118,9.64084e-06,0.0000000172
82,2712.6,370,119,9.71994e-06,0.0000000173
82.5,2712.6,374,119,9.79868e-06,0.0000000173
83,2712.6,377,119,9.87706e-06,0.0000000174
83.5,2712.6,380,119,9.95508e-06,0.0000000175
84,2712.6,384,119,1.00327e-05,0.0000000175
84.5,2712.6,387,119,1.011e-05,0.0000000176
85,2712.6,390,119,1.01869e-05,0.0000000176
85.5,2712.6,393,119,1.02635e-05,0.0000000177
86,2712.6,397,119,1.03396e-05,0.0000000177
86.5,2712.6,400,120,1.04154e-05,0.0000000178
87,2712.6,403,120,1.04908e-05,0.0000000179
87.5,2712.6,406,120,1.05658e-05,0.0000000179
88,2712.6,409,120,1.06404e-05,0.000000018
88.5,2712.6,413,120,1.07146e-05,0.000000018
89,2712.6,416,120,1.07885e-05,0.0000000181
89.5,2712.6,419,120,1.08619e-05,0.0000000182
90,2712.6,422,120,1.0935e-05,0.0000000182
90.5,2712.6,425,120,1.10077e-05,0.0000000183
91,2712.6,428,120,1.10799e-05,0.0000000183
91.5,2712.6,431,120,1.11518e-05,0.0000000184
92,2712.6,434,120,1.12233e-05,0.0000000184
92.5,2712.6,437,120,1.12944e-05,0.0000000185
93,2712.6,440,120,1.1365e-05,0.0000000186
93.5,2712.6,443,120,1.14353e-05,0.0000000186
94,2712.6,446,120,1.15052e-05,0.0000000187
94.5,2712.6,449,121,1.15746e-05,0.0000000187
95,2712.6,452,121,1.16437e-05,0.0000000188
95.5,2712.6,455,121,1.17124e-05,0.0000000188
96,2712.6,458,121,1.17806e-05,0.0000000189
96.5,2712.6,461,121,1.18485e-05,0.000000019
97,2712.6,464,121,1.19159e-05,0.000000019
97.5,2712.6,467,121,1.1983e-05,0.0000000191
98,2712.6,470,121,1.20496e-05,0.0000000191
98.5,2712.6,473,121,1.21158e-05,0.0000000192
99,2712.6,475,121,1.21817e-05,0.0000000193
99.5,2712.6,478,121,1.22471e-05,0.0000000193
100,2712.6,481,121,1.23121e-05,0.0000000194
100.5,2712.6,484,121,1.23768e-05,0.0000000194
101,2712.6,487,121,1.2441e-05,0.0000000195
101.5,2712.6,489,121,1.25048e-05,0.0000000195
102,2712.6,492,121,1.25682e-05,0.0000000196
102.5,2712.6,495,121,1.26312e-05,0.0000000197
103,2712.6,497,121,1.26939e-05,0.0000000197
103.5,2712.6,500,121,1.27561e-05,0.0000000198
104,2712.6,503,122,1.28179e-05,0.0000000198
104.5,2712.6,505,122,1.28793e-05,0.0000000199
105,2712.6,508,122,1.29404e-05,0.0000000199
105.5,2712.6,510,122,1.3001e-05,0.00000002
106,2712.6,513,122,1.30613e-05,0.0000000201
106.5,2712.6,516,122,1.31211e-05,0.0000000201
107,2712.6,518,122,1.31806e-05,0.0000000202
107.5,2712.6,521,122,1.32397e-05,0.0000000202
108,2712.6,523,122,1.32984e-05,0.0000000203
108.5,2712.6,526,122,1.33567e-05,0.0000000204
109,2712.6,528,122,1.34146e-05,0.0000000204
109.5,2712.6,531,122,1.34722e-05,0.0000000205
110,2712.6,533,122,1.35293e-05,0.0000000205
110.5,2712.6,535,123,1.35861e-05,0.0000000206
111,2712.6,538,123,1.36425e-05,0.0000000206
111.5,2712.6,540,123,1.36985e-05,0.0000000207
112,2712.6,543,123,1.37542e-05,0.0000000208
112.5,2712.6,545,123,1.38095e-05,0.0000000208
113,2712.6,547,123,1.38644e-05,0.0000000209
113.5,2712.6,550,123,1.3919e-05,0.0000000209
114,2712.6,552,123,1.39732e-05,0.000000021
114.5,2712.6,554,123,1.4027e-05,0.0000000211
115,2712.6,556,123,1.40804e-05,0.0000000211
115.5,2712.6,559,123,1.41336e-05,0.0000000212
116,2712.6,561,123,1.41863e-05,0.0000000212
116.5,2712.6,563,124,1.42387e-05,0.0000000213
117,2712.6,565,124,1.42908e-05,0.0000000213
117.5,2712.6,568,124,1.43425e-05,0.0000000214
118,2712.6,570,124,1.43938e-05,0.0000000215
118.5,2712.6,572,124,1.44448e-05,0.0000000215
119,2712.6,574,124,1.44955e-05,0.0000000216
119.5,2712.6,576,124,1.45458e-05,0.0000000216
120,2712.6,579,124,1.45958e-05,0.0000000217
120.5,2712.6,581,124,1.46455e-05,0.0000000217
121,2712.6,583,124,1.46948e-05,0.0000000218
121.5,2712.6,585,124,1.47438e-05,0.0000000219
122,2712.6,587,125,1.47925e-05,0.0000000219
122.5,2712.6,589,125,1.48408e-05,0.000000022
123,2712.6,591,125,1.48888e-05,0.000000022
123.5,2712.6,593,125,1.49366e-05,0.0000000221
124,2712.6,595,125,1.4984e-05,0.0000000222
124.5,2712.6,597,125,1.5031e-05,0.0000000222
125,2712.6,599,125,1.50778e-05,0.0000000223
125.5,2712.6,601,125,1.51243e-05,0.0000000223
126,2712.6,603,125,1.51704e-05,0.0000000224
126.5,2712.6,605,125,1.52163e-05,0.0000000224
127,2712.6,607,125,1.52619e-05,0.0000000225
127.5,2712.6,609,126,1.53071e-05,0.0000000226
128,2712.6,611,126,1.53521e-05,0.0000000226
128.5,2712.6,613,126,1.53968e-05,0.0000000227
129,2712.6,615,126,1.54412e-05,0.0000000227
129.5,2712.6,617,126,1.54853e-05,0.0000000228
130,2712.6,618,126,1.55291e-05,0.0000000228
130.5,2712.6,620,126,1.55727e-05,0.0000000229
131,2712.6,622,126,1.5616e-05,0.000000023
131.5,2712.6,624,126,1.5659e-05,0.000000023
132,2712.6,626,126,1.57017e-05,0.0000000231
132.5,2712.6,628,127,1.57442e-05,0.0000000231
133,2712.6,629,127,1.57864e-05,0.0000000232
133.5,2712.6,631,127,1.58283e-05,0.0000000233
134,2712.6,633,127,1.587e-05,0.0000000233
134.5,2712.6,635,127,1.59114e-05,0.0000000234
135,2712.6,636,127,1.59526e-05,0.0000000234
135.5,2712.6,638,127,1.59936e-05,0.0000000235
136,2712.6,640,127,1.60342e-05,0.0000000235
136.5,2712.6,642,127,1.60747e-05,0.0000000236
137,2712.6,643,127,1.61149e-05,0.0000000237
137.5,2712.6,645,128,1.61548e-05,0.0000000237
138,2712.6,647,128,1.61946e-05,0.0000000238
138.5,2712.6,648,128,1.62341e-05,0.0000000238
139,2712.6,650,128,1.62733e-05,0.0000000239
139.5,2712.6,652,128,1.63124e-05,0.0000000239
140,2712.6,653,128,1.63512e-05,0.000000024
140.5,2712.6,655,128,1.63898e-05,0.0000000241
141,2712.6,657,128,1.64282e-05,0.0000000241
141.5,2712.6,658,128,1.64663e-05,0.0000000242
142,2712.6,660,128,1.65043e-05,0.0000000242
142.5,2712.6,661,129,1.65421e-05,0.0000000243
143,2712.6,663,129,1.65796e-05,0.0000000243
143.5,2712.6,665,129,1.66169e-05,0.0000000244
144,2712.6,666,129,1.66541e-05,0.0000000245
144.5,2712.6,668,129,1.6691e-05,0.0000000245
145,2712.6,669,129,1.67278e-05,0.0000000246
145.5,2712.6,671,129,1.67643e-05,0.0000000246
146,2712.6,672,129,1.68007e-05,0.0000000247
146.5,2712.6,674,129,1.68368e-05,0.0000000248
147,2712.6,675,129,1.68728e-05,0.0000000248
147.5,2712.6,677,130,1.69086e-05,0.0000000249
148,2712.6,678,130,1.69443e-05,0.0000000249
148.5,2712.6,680,130,1.69797e-05,0.000000025
149,2712.6,681,130,1.7015e-05,0.000000025
149.5,2712.6,682,130,1.70501e-05,0.0000000251
150,2712.6,684,130,1.70851e-05,0.0000000252
150.5,2712.6,686,130,1.71199e-05,0.0000000252
151,2712.6,687,130,1.71545e-05,0.0000000253
151.5,2712.6,689,130,1.71889e-05,0.0000000253
152,2712.6,690,130,1.72232e-05,0.0000000254
152.5,2712.6,691,130,1.72574e-05,0.0000000254
153,2712.6,693,130,1.72913e-05,0.0000000255
153.5,2712.6,694,130,1.73252e-05,0.0000000256
154,2712.6,696,130,1.73589e-05,0.0000000256
154.5,2712.6,697,130,1.73924e-05,0.0000000257
155,2712.6,699,130,1.74258e-05,0.0000000257
155.5,2712.6,700,130,1.74591e-05,0.0000000258
156,2712.6,702,131,1.74922e-05,0.0000000259
156.5,2712.6,703,131,1.75252e-05,0.0000000259
157,2712.6,704,131,1.7558e-05,0.000000026
157.5,2712.6,706,131,1.75907e-05,0.000000026
158,2712.6,707,131,1.76233e-05,0.0000000261
158.5,2712.6,708,131,1.76557e-05,0.0000000261
159,2712.6,710,131,1.76881e-05,0.0000000262
159.5,2712.6,711,131,1.77203e-05,0.0000000263
160,2712.6,713,131,1.77523e-05,0.0000000263
160.5,2712.6,714,131,1.77843e-05,0.0000000264
161,2712.6,715,131,1.78161e-05,0.0000000264
161.5,2712.6,717,131,1.78479e-05,0.0000000265
162,2712.6,718,131,1.78795e-05,0.0000000265
162.5,2712.6,719,131,1.7911e-05,0.0000000266
163,2712.6,720,131,1.79423e-05,0.0000000267
163.5,2712.6,722,131,1.79736e-05,0.0000000267
164,2712.6,723,131,1.80048e-05,0.0000000268
164.5,2712.6,724,131,1.80359e-05,0.0000000268
165,2712.6,726,131,1.80668e-05,0.0000000269
165.5,2712.6,727,131,1.80977e-05,0.000000027
166,2712.6,728,131,1.81284e-05,0.000000027
166.5,2712.6,729,131,1.81591e-05,0.0000000271
167,2712.6,731,131,1.81896e-05,0.0000000271
167.5,2712.6,732,131,1.82201e-05,0.0000000272
168,2712.6,733,132,1.82505e-05,0.0000000272
168.5,2712.6,734,132,1.82808e-05,0.0000000273
169,2712.6,735,132,1.83109e-05,0.0000000274
169.5,2712.6,737,132,1.8341e-05,0.0000000274
170,2712.6,738,132,1.83711e-05,0.0000000275
170.5,2712.6,739,132,1.8401e-05,0.0000000275
171,2712.6,740,132,1.84308e-05,0.0000000276
171.5,2712.6,741,132,1.84606e-05,0.0000000276
172,2712.6,743,132,1.84902e-05,0.0000000277
172.5,2712.6,744,132,1.85198e-05,0.0000000278
173,2712.6,745,132,1.85493e-05,0.0000000278
173.5,2712.6,746,132,1.85787e-05,0.0000000279
174,2712.6,747,132,1.86081e-05,0.0000000279
174.5,2712.6,748,132,1.86373e-05,0.000000028
175,2712.6,749,132,1.86665e-05,0.0000000281
175.5,2712.6,750,132,1.86956e-05,0.0000000281
176,2712.6,752,132,1.87247e-05,0.0000000282
176.5,2712.6,753,132,1.87536e-05,0.0000000282
177,2712.6,754,132,1.87825e-05,0.0000000283
177.5,2712.6,755,132,1.88113e-05,0.0000000283
178,2712.6,756,132,1.88401e-05,0.0000000284
178.5,2712.6,757,132,1.88687e-05,0.0000000285
179,2712.6,758,132,1.88973e-05,0.0000000285
179.5,2712.6,759,133,1.89259e-05,0.0000000286
180,2712.6,760,133,1.89543e-05,0.0000000286
180.5,2712.6,761,133,1.89827e-05,0.0000000287
181,2712.6,762,133,1.90111e-05,0.0000000287
181.5,2712.6,763,133,1.90393e-05,0.0000000288
182,2712.6,764,133,1.90675e-05,0.0000000289
182.5,2712.6,765,133,1.90956e-05,0.0000000289
183,2712.6,766,133,1.91237e-05,0.000000029
183.5,2712.6,767,133,1.91517e-05,0.000000029
184,2712.6,768,133,1.91796e-05,0.0000000291
184.5,2712.6,769,133,1.92075e-05,0.0000000292
185,2712.6,770,133,1.92353e-05,0.0000000292
185.5,2712.6,771,133,1.9263e-05,0.0000000293
186,2712.6,772,133,1.92906e-05,0.0000000293
186.5,2712.6,773,133,1.93182e-05,0.0000000294
187,2712.6,774,133,1.93458e-05,0.0000000294
187.5,2712.6,775,133,1.93732e-05,0.0000000295
188,2712.6,776,133,1.94006e-05,0.0000000296
188.5,2712.6,777,133,1.9428e-05,0.0000000296
189,2712.6,778,134,1.94553e-05,0.0000000297
189.5,2712.6,779,134,1.94825e-05,0.0000000297
190,2712.6,780,134,1.95096e-05,0.0000000298
190.5,2712.6,781,134,1.95367e-05,0.0000000298
191,2712.6,782,134,1.95637e-05,0.0000000299
191.5,2712.6,782,134,1.95907e-05,0.00000003
192,2712.6,783,134,1.96175e-05,0.00000003
192.5,2712.6,784,134,1.96444e-05,0.0000000301
193,2712.6,785,134,1.96711e-05,0.0000000301
193.5,2712.6,786,134,1.96978e-05,0.0000000302
194,2712.6,787,134,1.97244e-05,0.0000000303
194.5,2712.6,788,134,1.9751e-05,0.0000000303
195,2712.6,789,134,1.97774e-05,0.0000000304
195.5,2712.6,789,134,1.98038e-05,0.0000000304
196,2712.6,790,134,1.98302e-05,0.0000000305
196.5,2712.6,791,134,1.98565e-05,0.0000000305
197,2712.6,792,135,1.98827e-05,0.0000000306
197.5,2712.6,793,135,1.99088e-05,0.0000000307
198,2712.6,794,135,1.99349e-05,0.0000000307
198.5,2712.6,795,135,1.99608e-05,0.0000000308
199,2712.6,795,135,1.99868e-05,0.0000000308
199.5,2712.6,796,135,2.00126e-05,0.0000000309
200,2712.6,797,135,2.00384e-05,0.000000031
200.5,2712.6,798,135,2.00641e-05,0.000000031
201,2712.6,799,135,2.00897e-05,0.0000000311
201.5,2712.6,799,135,2.01152e-05,0.0000000311
202,2712.6,800,136,2.01407e-05,0.0000000312
202.5,2712.6,801,136,2.01661e-05,0.0000000312
203,2712.6,802,136,2.01914e-05,0.0000000313
203.5,2712.6,803,136,2.02166e-05,0.0000000314
204,2712.6,803,136,2.02417e-05,0.0000000314
204.5,2712.6,804,136,2.02668e-05,0.0000000315
205,2712.6,805,136,2.02917e-05,0.0000000315
205.5,2712.6,806,137,2.03166e-05,0.0000000316
206,2712.6,806,137,2.03414e-05,0.0000000316
206.5,2712.6,807,137,2.03661e-05,0.0000000317
207,2712.6,808,137,2.03908e-05,0.0000000318
207.5,2712.6,809,137,2.04153e-05,0.0000000318
208,2712.6,809,137,2.04397e-05,0.0000000319
208.5,2712.6,810,137,2.04641e-05,0.0000000319
209,2712.6,811,138,2.04884e-05,0.000000032
209.5,2712.6,812,138,2.05125e-05,0.0000000321
210,2712.6,812,138,2.05366e-05,0.0000000321
210.5,2712.6,813,138,2.05606e-05,0.0000000322
211,2712.6,814,138,2.05845e-05,0.0000000322
211.5,2712.6,815,138,2.06082e-05,0.0000000323
212,2712.6,815,138,2.06319e-05,0.0000000323
212.5,2712.6,816,139,2.06555e-05,0.0000000324
213,2712.6,817,139,2.06789e-05,0.0000000325
213.5,2712.6,817,139,2.07023e-05,0.0000000325
214,2712.6,818,139,2.07256e-05,0.0000000326
214.5,2712.6,819,139,2.07487e-05,0.0000000326
215,2712.6,819,139,2.07718e-05,0.0000000327
215.5,2712.6,820,139,2.07947e-05,0.0000000327
216,2712.6,821,140,2.08175e-05,0.0000000328
216.5,2712.6,821,140,2.08402e-05,0.0000000329
217,2712.6,822,140,2.08628e-05,0.0000000329
217.5,2712.6,823,140,2.08853e-05,0.000000033
218,2712.6,823,140,2.09077e-05,0.000000033
218.5,2712.6,824,140,2.09299e-05,0.0000000331
219,2712.6,825,141,2.0952e-05,0.0000000332
219.5,2712.6,825,141,2.0974e-05,0.0000000332
220,2712.6,826,141,2.09959e-05,0.0000000333
220.5,2712.6,827,141,2.10176e-05,0.0000000333
221,2712.6,827,141,2.10392e-05,0.0000000334
221.5,2712.6,828,141,2.10607e-05,0.0000000334
222,2712.6,829,141,2.10821e-05,0.0000000335
222.5,2712.6,829,142,2.11033e-05,0.0000000336
223,2712.6,830,142,2.11244e-05,0.0000000336
223.5,2712.6,830,142,2.11454e-05,0.0000000337
224,2712.6,831,142,2.11662e-05,0.0000000337
224.5,2712.6,832,142,2.11869e-05,0.0000000338
225,2712.6,832,142,2.12074e-05,0.0000000338
225.5,2712.6,833,143,2.12278e-05,0.0000000339
226,2712.6,833,143,2.12481e-05,0.000000034
226.5,2712.6,834,143,2.12682e-05,0.000000034
227,2712.6,835,143,2.12882e-05,0.0000000341
227.5,2712.6,835,143,2.1308e-05,0.0000000341
228,2712.6,836,143,2.13277e-05,0.0000000342
228.5,2712.6,836,144,2.13473e-05,0.0000000343
229,2712.6,837,144,2.13666e-05,0.0000000343
229.5,2712.6,838,144,2.13859e-05,0.0000000344
230,2712.6,838,144,2.14049e-05,0.0000000344
230.5,2712.6,839,144,2.14239e-05,0.0000000345
231,2712.6,839,144,2.14426e-05,0.0000000345
231.5,2712.6,840,144,2.14612e-05,0.0000000346
232,2712.6,840,145,2.14797e-05,0.0000000347
232.5,2712.6,841,145,2.1498e-05,0.0000000347
233,2712.6,841,145,2.15161e-05,0.0000000348
233.5,2712.6,842,145,2.1534e-05,0.0000000348
234,2712.6,843,145,2.15518e-05,0.0000000349
234.5,2712.6,843,145,2.15695e-05,0.0000000349
235,2712.6,844,146,2.15869e-05,0.000000035
235.5,2712.6,844,146,2.16042e-05,0.0000000351
236,2712.6,845,146,2.16213e-05,0.0000000351
236.5,2712.6,845,146,2.16383e-05,0.0000000352
237,2712.6,846,146,2.16551e-05,0.0000000352
237.5,2712.6,846,146,2.16717e-05,0.0000000353
238,2712.6,847,147,2.16881e-05,0.0000000354
238.5,2712.6,847,147,2.17044e-05,0.0000000354
239,2712.6,848,147,2.17204e-05,0.0000000355
239.5,2712.6,848,147,2.17363e-05,0.0000000355
240,2712.6,849,147,2.17521e-05,0.0000000356
240.5,2712.6,850,147,2.17676e-05,0.0000000356
241,2712.6,850,147,2.1783e-05,0.0000000357
241.5,2712.6,851,148,2.17981e-05,0.0000000358
242,2712.6,851,148,2.18131e-05,0.0000000358
242.5,2712.6,852,148,2.1828e-05,0.0000000359
243,2712.6,852,148,2.18426e-05,0.0000000359
243.5,2712.6,853,148,2.1857e-05,0.000000036
244,2712.6,853,148,2.18713e-05,0.000000036
244.5,2712.6,854,148,2.18854e-05,0.0000000361
245,2712.6,854,149,2.18993e-05,0.0000000362
245.5,2712.6,855,149,2.1913e-05,0.0000000362
246,2712.6,855,149,2.19265e-05,0.0000000363
246.5,2712.6,856,149,2.19398e-05,0.0000000363
247,2712.6,856,149,2.19529e-05,0.0000000364
247.5,2712.6,857,149,2.19659e-05,0.0000000365
248,2712.6,857,149,2.19787e-05,0.0000000365
248.5,2712.6,858,150,2.19912e-05,0.0000000366
249,2712.6,858,150,2.20036e-05,0.0000000366
249.5,2712.6,859,150,2.20158e-05,0.0000000367
250,2712.6,859,150,2.20278e-05,0.0000000367
250.5,2712.6,859,150,2.20396e-05,0.0000000368
251,2712.6,860,150,2.20512e-05,0.0000000369
251.5,2712.6,860,150,2.20627e-05,0.0000000369
252,2712.6,861,150,2.20739e-05,0.000000037
252.5,2712.6,861,151,2.2085e-05,0.000000037
253,2712.6,862,151,2.20959e-05,0.0000000371
253.5,2712.6,862,151,2.21065e-05,0.0000000371
254,2712.6,863,151,2.2117e-05,0.0000000372
254.5,2712.6,863,151,2.21273e-05,0.0000000373
255,2712.6,864,151,2.21375e-05,0.0000000373
255.5,2712.6,864,151,2.21474e-05,0.0000000374
256,2712.6,865,151,2.21571e-05,0.0000000374
256.5,2712.6,865,152,2.21667e-05,0.0000000375
257,2712.6,866,152,2.21761e-05,0.0000000375
257.5,2712.6,866,152,2.21853e-05,0.0000000376
258,2712.6,867,152,2.21943e-05,0.0000000377
258.5,2712.6,867,152,2.22032e-05,0.0000000377
259,2712.6,868,152,2.22118e-05,0.0000000378
259.5,2712.6,868,152,2.22203e-05,0.0000000378
260,2712.6,869,152,2.22286e-05,0.0000000379
260.5,2712.6,869,152,2.22367e-05,0.000000038
261,2712.6,869,153,2.22447e-05,0.000000038
261.5,2712.6,870,153,2.22525e-05,0.0000000381
262,2712.6,870,153,2.22601e-05,0.0000000381
262.5,2712.6,871,153,2.22676e-05,0.0000000382
263,2712.6,871,153,2.22748e-05,0.0000000382
263.5,2712.6,872,153,2.2282e-05,0.0000000383
264,2712.6,872,153,2.22889e-05,0.0000000384
264.5,2712.6,873,153,2.22957e-05,0.0000000384
265,2712.6,873,153,2.23024e-05,0.0000000385
265.5,2712.6,873,153,2.23089e-05,0.0000000385
266,2712.6,874,154,2.23152e-05,0.0000000386
266.5,2712.6,874,154,2.23214e-05,0.0000000386
267,2712.6,875,154,2.23275e-05,0.0000000387
267.5,2712.6,875,154,2.23334e-05,0.0000000388
268,2712.6,876,154,2.23391e-05,0.0000000388
268.5,2712.6,876,154,2.23448e-05,0.0000000389
269,2712.6,877,154,2.23502e-05,0.0000000389
269.5,2712.6,877,154,2.23556e-05,0.000000039
270,2712.6,877,154,2.23608e-05,0.0000000391
270.5,2712.6,878,154,2.2366e-05,0.0000000391
271,2712.6,878,155,2.2371e-05,0.0000000392
271.5,2712.6,879,155,2.23758e-05,0.0000000392
272,2712.6,879,155,2.23806e-05,0.0000000393
272.5,2712.6,880,155,2.23853e-05,0.0000000393
273,2712.6,880,155,2.23898e-05,0.0000000394
273.5,2712.6,880,155,2.23943e-05,0.0000000395
274,2712.6,881,155,2.23986e-05,0.0000000395
274.5,2712.6,881,155,2.24029e-05,0.0000000396
275,2712.6,882,155,2.24071e-05,0.0000000396
275.5,2712.6,882,155,2.24112e-05,0.0000000397
276,2712.6,883,156,2.24153e-05,0.0000000397
276.5,2712.6,883,156,2.24192e-05,0.0000000398
277,2712.6,883,156,2.24232e-05,0.0000000399
277.5,2712.6,884,156,2.2427e-05,0.0000000399
278,2712.6,884,156,2.24308e-05,0.00000004
278.5,2712.6,885,156,2.24345e-05,0.00000004
279,2712.6,885,156,2.24383e-05,0.0000000401
279.5,2712.6,885,156,2.24419e-05,0.0000000402
280,2712.6,886,156,2.24456e-05,0.0000000402
280.5,2712.6,886,156,2.24492e-05,0.0000000403
281,2712.6,887,157,2.24528e-05,0.0000000403
281.5,2712.6,887,157,2.24564e-05,0.0000000404
282,2712.6,888,157,2.246e-05,0.0000000404
282.5,2712.6,888,157,2.24636e-05,0.0000000405
283,2712.6,888,157,2.24673e-05,0.0000000406
283.5,2712.6,889,157,2.24709e-05,0.0000000406
284,2712.6,889,157,2.24746e-05,0.0000000407
284.5,2712.6,890,157,2.24783e-05,0.0000000407
285,2712.6,890,157,2.2482e-05,0.0000000408
285.5,2712.6,890,157,2.24858e-05,0.0000000408
286,2712.6,891,157,2.24897e-05,0.0000000409
286.5,2712.6,891,158,2.24936e-05,0.000000041
287,2712.6,892,158,2.24976e-05,0.000000041
287.5,2712.6,892,158,2.25017e-05,0.0000000411
288,2712.6,892,158,2.25059e-05,0.0000000411
288.5,2712.6,893,158,2.25102e-05,0.0000000412
289,2712.6,893,158,2.25146e-05,0.0000000413
289.5,2712.6,894,158,2.25192e-05,0.0000000413
290,2712.6,894,158,2.25239e-05,0.0000000414
290.5,2712.6,894,158,2.25287e-05,0.0000000414
291,2712.6,895,158,2.25337e-05,0.0000000415
291.5,2712.6,895,158,2.25388e-05,0.0000000415
292,2712.6,896,159,2.25441e-05,0.0000000416
292.5,2712.6,896,159,2.25496e-05,0.0000000417
293,2712.6,896,159,2.25553e-05,0.0000000417
293.5,2712.6,897,159,2.25612e-05,0.0000000418
294,2712.6,897,159,2.25674e-05,0.0000000418
294.5,2712.6,898,159,2.25737e-05,0.0000000419
295,2712.6,898,159,2.25803e-05,0.0000000419
295.5,2712.6,898,159,2.25872e-05,0.000000042
296,2712.6,899,159,2.25943e-05,0.0000000421
296.5,2712.6,899,159,2.26017e-05,0.0000000421
297,2712.6,900,159,2.26095e-05,0.0000000422
297.5,2712.6,900,160,2.26175e-05,0.0000000422
298,2712.6,900,160,2.26258e-05,0.0000000423
298.5,2712.6,901,160,2.26345e-05,0.0000000424
299,2712.6,901,160,2.26435e-05,0.0000000424
299.5,2712.6,902,160,2.26529e-05,0.0000000425
300,2712.6,902,160,2.26627e-05,0.0000000425