File: SolidProps/lib/ALUMINUM_PURE.csv
T/K,rho/(kg/m3),cp/(J/(kg.K)),K/(W/(m.K)),alpha_thermal/(1/K),resistivity/(ohm.m)
1,2698,0.1,58.1,0,4.2E-10
1.5,2698,0.0968,87.2,0,4.2E-10
2,2698,0.108,116,0,4.2E-10
2.5,2698,0.133,145,0,4.2E-10
3,2698,0.169,174,0,4.2E-10
3.5,2698,0.218,203,0,4.2E-10
4,2698,0.276,232,0,4.2E-10
4.5,2698,0.344,261,0,4.2E-10
5,2698,0.388,290,0,4.2E-10
5.5,2698,0.448,319,0,4.2E-10
6,2698,0.515,348,0,4.2E-10
6.5,2698,0.59,377,0,4.2E-10
7,2698,0.673,406,9.71011e-08,4.2E-10
7.5,2698,0.765,435,1.49903e-07,4.2E-10
8,2698,0.867,463,2.02783e-07,4.2E-10
8.5,2698,0.981,491,2.5574e-07,4.21E-10
9,2698,1.11,519,3.08773e-07,4.21E-10
9.5,2698,1.25,547,3.61882e-07,4.21E-10
10,2698,1.4,575,4.15065e-07,4.21E-10
10.5,2698,1.56,603,4.68323e-07,4.21E-10
11,2698,1.74,630,5.21654e-07,4.21E-10
11.5,2698,1.93,657,5.75058e-07,4.21E-10
12,2698,2.14,683,6.28535e-07,4.21E-10
12.5,2698,2.37,710,6.82083e-07,4.21E-10
13,2698,2.62,735,7.35701e-07,4.22E-10
13.5,2698,2.89,761,7.8939e-07,4.22E-10
14,2698,3.18,786,8.43149e-07,4.22E-10
14.5,2698,3.5,810,8.96976e-07,4.23E-10
15,2698,3.84,834,9.50871e-07,4.23E-10
15.5,2698,4.21,858,1.00483e-06,4.24E-10
16,2698,4.61,881,1.05886e-06,4.25E-10
16.5,2698,5.03,903,1.11296e-06,4.25E-10
17,2698,5.49,925,1.16712e-06,4.26E-10
17.5,2698,5.97,946,1.22135e-06,4.27E-10
18,2698,6.49,967,1.27564e-06,4.28E-10
18.5,2698,7.04,987,1.32999e-06,4.29E-10
19,2698,7.62,1010,1.38441e-06,4.3E-10
19.5,2698,8.24,1030,1.43889e-06,4.32E-10
20,2698,8.9,1040,1.49343e-06,4.33E-10
20.5,2698,9.6,1060,1.54803e-06,4.35E-10
21,2698,10.3,1070,1.60269e-06,4.36E-10
21.5,2698,11.1,1080,1.65741e-06,4.38E-10
22,2698,11.9,1100,1.71219e-06,4.4E-10
22.5,2698,12.8,1110,1.76703e-06,4.42E-10
23,2698,13.7,1120,1.82192e-06,4.45E-10
23.5,2698,14.7,1130,1.87688e-06,4.47E-10
24,2698,15.7,1140,1.93189e-06,4.5E-10
24.5,2698,16.7,1150,1.98695e-06,4.53E-10
25,2698,17.8,1160,2.04207e-06,4.56E-10
25.5,2698,18.9,1160,2.09724e-06,4.59E-10
26,2698,20.1,1170,2.15247e-06,4.62E-10
26.5,2698,21.4,1180,2.20775e-06,4.66E-10
27,2698,22.6,1180,2.26308e-06,4.7E-10
27.5,2698,24,1190,2.31846e-06,4.74E-10
28,2698,25.4,1190,2.37389e-06,4.78E-10
28.5,2698,26.8,1190,2.42938e-06,4.83E-10
29,2698,28.3,1190,2.48491e-06,4.88E-10
29.5,2698,29.8,1190,2.54049e-06,4.93E-10
30,2698,31.5,1190,2.59612e-06,4.98E-10
30.5,2698,33.3,1190,2.6518e-06,5.04E-10
31,2698,35.1,1190,2.70752e-06,5.1E-10
31.5,2698,37,1180,2.76329e-06,5.17E-10
32,2698,39,1180,2.81911e-06,5.23E-10
32.5,2698,41,1170,2.87497e-06,5.3E-10
33,2698,43.1,1160,2.93087e-06,5.38E-10
33.5,2698,45.2,1160,2.98682e-06,5.45E-10
34,2698,47.4,1150,3.04281e-06,5.53E-10
34.5,2698,49.6,1140,3.09884e-06,5.62E-10
35,2698,51.9,1130,3.15492e-06,5.7E-10
35.5,2698,54.2,1120,3.21103e-06,5.79E-10
36,2698,56.6,1110,3.26719e-06,5.88E-10
36.5,2698,59,1100,3.32338e-06,5.98E-10
37,2698,61.5,1090,3.37962e-06,6.08E-10
37.5,2698,64.1,1080,3.43589e-06,6.18E-10
38,2698,66.7,1070,3.4922e-06,6.29E-10
38.5,2698,69.3,1050,3.54854e-06,6.4E-10
39,2698,72,1040,3.60492e-06,6.51E-10
39.5,2698,74.7,1030,3.66134e-06,6.63E-10
40,2698,77.5,1020,3.71779e-06,6.75E-10
40.5,2698,80.4,1000,3.77428e-06,6.88E-10
41,2698,83.3,990,3.8308e-06,7.01E-10
41.5,2698,86.3,977,3.88735e-06,7.15E-10
42,2698,89.3,964,3.94394e-06,7.28E-10
42.5,2698,92.3,951,4.00055e-06,7.43E-10
43,2698,95.4,938,4.0572e-06,7.57E-10
43.5,2698,98.5,925,4.11388e-06,7.72E-10
44,2698,102,911,4.17058e-06,7.88E-10
44.5,2698,105,898,4.22732e-06,8.04E-10
45,2698,108,884,4.28408e-06,8.2E-10
45.5,2698,111,871,4.34087e-06,8.37E-10
46,2698,115,857,4.39769e-06,8.54E-10
46.5,2698,118,844,4.45453e-06,8.71E-10
47,2698,121,830,4.5114e-06,8.89E-10
47.5,2698,125,817,4.56829e-06,9.08E-10
48,2698,128,804,4.62521e-06,9.27E-10
48.5,2698,132,791,4.68215e-06,9.46E-10
49,2698,135,777,4.73912e-06,9.66E-10
49.5,2698,139,763,4.7961e-06,9.86E-10
50,2698,142,752,4.85311e-06,0.00000000101
50.5,2698,145,740,4.91014e-06,0.00000000103
51,2698,149,729,4.96719e-06,0.00000000105
51.5,2698,152,718,5.02426e-06,0.00000000107
52,2698,156,707,5.08134e-06,0.00000000109
52.5,2698,160,697,5.13845e-06,0.00000000112
53,2698,163,686,5.19557e-06,0.00000000114
53.5,2698,167,676,5.25271e-06,0.00000000116
54,2698,170,666,5.30987e-06,0.00000000119
54.5,2698,174,656,5.36704e-06,0.00000000121
55,2698,177,646,5.42422e-06,0.00000000124
55.5,2698,181,636,5.48142e-06,0.00000000126
56,2698,185,627,5.53864e-06,0.00000000129
56.5,2698,188,618,5.59586e-06,0.00000000132
57,2698,192,609,5.6531e-06,0.00000000134
57.5,2698,196,600,5.71035e-06,0.00000000137
58,2698,199,591,5.76761e-06,0.0000000014
58.5,2698,203,582,5.82488e-06,0.00000000143
59,2698,207,574,5.88216e-06,0.00000000146
59.5,2698,210,566,5.93945e-06,0.00000000149
60,2698,214,558,5.99675e-06,0.00000000152
60.5,2698,218,551,6.05405e-06,0.00000000155
61,2698,221,543,6.11137e-06,0.00000000158
61.5,2698,225,536,6.16868e-06,0.00000000161
62,2698,229,529,6.22601e-06,0.00000000164
62.5,2698,232,522,6.28334e-06,0.00000000167
63,2698,236,516,6.34067e-06,0.00000000171
63.5,2698,240,509,6.398e-06,0.00000000174
64,2698,243,503,6.45534e-06,0.00000000178
64.5,2698,247,497,6.51268e-06,0.00000000181
65,2698,251,491,6.57003e-06,0.00000000184
65.5,2698,254,485,6.62737e-06,0.00000000188
66,2698,258,479,6.68471e-06,0.00000000192
66.5,2698,262,473,6.74206e-06,0.00000000195
67,2698,265,468,6.7994e-06,0.00000000199
67.5,2698,269,463,6.85674e-06,0.00000000203
68,2698,273,458,6.91408e-06,0.00000000206
68.5,2698,276,452,6.97141e-06,0.0000000021
69,2698,280,448,7.02874e-06,0.00000000214
69.5,2698,283,443,7.08607e-06,0.00000000218
70,2698,287,438,7.14339e-06,0.00000000222
70.5,2698,291,433,7.20071e-06,0.00000000226
71,2698,294,429,7.25802e-06,0.0000000023
71.5,2698,298,424,7.31532e-06,0.00000000234
72,2698,301,420,7.37261e-06,0.00000000238
72.5,2698,305,416,7.4299e-06,0.00000000242
73,2698,308,412,7.48717e-06,0.00000000246
73.5,2698,312,408,7.54444e-06,0.00000000251
74,2698,315,404,7.6017e-06,0.00000000255
74.5,2698,319,400,7.65894e-06,0.00000000259
75,2698,323,396,7.71618e-06,0.00000000264
75.5,2698,326,392,7.7734e-06,0.00000000268
76,2698,329,389,7.83061e-06,0.00000000272
76.5,2698,333,385,7.8878e-06,0.00000000277
77,2698,336,382,0.000007944984,0.00000000281
77.5,2698,340,378,8.00215e-06,0.00000000286
78,2698,343,375,8.0593e-06,0.00000000291
78.5,2698,347,372,8.11643e-06,0.00000000295
79,2698,350,369,8.17355e-06,0.000000003
79.5,2698,354,366,8.23065e-06,0.00000000304
80,2698,357,363,8.28773e-06,0.00000000309
80.5,2698,360,360,8.34479e-06,0.00000000314
81,2698,364,357,8.40183e-06,0.00000000319
81.5,2698,367,354,8.45885e-06,0.00000000323
82,2698,370,351,8.51585e-06,0.00000000328
82.5,2698,374,348,8.57283e-06,0.00000000333
83,2698,377,346,8.62979e-06,0.00000000338
83.5,2698,380,343,8.68672e-06,0.00000000343
84,2698,384,340,8.74363e-06,0.00000000348
84.5,2698,387,338,8.80052e-06,0.00000000353
85,2698,390,335,8.85738e-06,0.00000000358
85.5,2698,393,333,8.91421e-06,0.00000000363
86,2698,397,331,8.97102e-06,0.00000000368
86.5,2698,400,328,9.0278e-06,0.00000000373
87,2698,403,326,9.08456e-06,0.00000000378
87.5,2698,406,324,9.14128e-06,0.00000000383
88,2698,409,322,9.19798e-06,0.00000000389
88.5,2698,413,320,9.25465e-06,0.00000000394
89,2698,416,317,9.31129e-06,0.00000000399
89.5,2698,419,316,9.36789e-06,0.00000000404
90,2698,422,313,9.42447e-06,0.00000000409
90.5,2698,425,312,9.48101e-06,0.00000000415
91,2698,428,310,9.53752e-06,0.0000000042
91.5,2698,431,308,9.594e-06,0.00000000425
92,2698,434,306,9.65044e-06,0.00000000431
92.5,2698,437,304,9.70685e-06,0.00000000436
93,2698,440,302,9.76322e-06,0.00000000441
93.5,2698,443,301,9.81955e-06,0.00000000447
94,2698,446,299,9.87585e-06,0.00000000452
94.5,2698,449,297,9.93211e-06,0.00000000457
95,2698,452,296,9.98834e-06,0.00000000463
95.5,2698,455,294,1.00445e-05,0.00000000468
96,2698,458,293,1.01007e-05,0.00000000474
96.5,2698,461,291,1.01568e-05,0.00000000479
97,2698,464,290,1.02128e-05,0.00000000485
97.5,2698,467,288,1.02689e-05,0.0000000049
98,2698,470,287,1.03248e-05,0.00000000496
98.5,2698,473,285,1.03808e-05,0.00000000501
99,2698,475,284,1.04367e-05,0.00000000507
99.5,2698,478,283,1.04925e-05,0.00000000512
100,2698,481,282,1.05483e-05,0.00000000518
100.5,2698,484,280,1.06041e-05,0.00000000523
101,2698,487,279,1.06598e-05,0.00000000529
101.5,2698,489,278,1.07155e-05,0.00000000534
102,2698,492,276,1.07711e-05,0.0000000054
102.5,2698,495,275,1.08267e-05,0.00000000545
103,2698,497,274,1.08822e-05,0.00000000551
103.5,2698,500,273,1.09377e-05,0.00000000556
104,2698,503,272,1.09931e-05,0.00000000562
104.5,2698,505,270,1.10484e-05,0.00000000567
105,2698,508,269,1.11038e-05,0.00000000573
105.5,2698,510,268,1.1159e-05,0.00000000578
106,2698,513,267,1.12143e-05,0.00000000584
106.5,2698,516,266,1.12694e-05,0.00000000589
107,2698,518,265,1.13245e-05,0.00000000595
107.5,2698,521,264,1.13796e-05,0.000000006
108,2698,523,263,1.14346e-05,0.00000000606
108.5,2698,526,262,1.14895e-05,0.00000000611
109,2698,528,261,1.15444e-05,0.00000000617
109.5,2698,531,260,1.15992e-05,0.00000000622
110,2698,533,259,1.1654e-05,0.00000000628
110.5,2698,535,259,1.17087e-05,0.00000000633
111,2698,538,258,1.17634e-05,0.00000000639
111.5,2698,540,257,1.1818e-05,0.00000000645
112,2698,543,256,1.18725e-05,0.0000000065
112.5,2698,545,255,1.1927e-05,0.00000000656
113,2698,547,254,1.19814e-05,0.00000000661
113.5,2698,550,254,1.20357e-05,0.00000000667
114,2698,552,253,1.209e-05,0.00000000672
114.5,2698,554,252,1.21443e-05,0.00000000678
115,2698,556,252,1.21984e-05,0.00000000684
115.5,2698,559,251,1.22525e-05,0.00000000689
116,2698,561,250,1.23065e-05,0.00000000695
116.5,2698,563,250,1.23605e-05,0.000000007
117,2698,565,249,1.24144e-05,0.00000000706
117.5,2698,568,248,1.24682e-05,0.00000000712
118,2698,570,248,1.2522e-05,0.00000000717
118.5,2698,572,247,1.25756e-05,0.00000000723
119,2698,574,247,1.26293e-05,0.00000000728
119.5,2698,576,246,1.26828e-05,0.00000000734
120,2698,579,246,1.27363e-05,0.0000000074
120.5,2698,581,245,1.27897e-05,0.00000000745
121,2698,583,245,1.2843e-05,0.00000000751
121.5,2698,585,244,1.28963e-05,0.00000000757
122,2698,587,244,1.29495e-05,0.00000000762
122.5,2698,589,243,1.30026e-05,0.00000000768
123,2698,591,243,1.30556e-05,0.00000000773
123.5,2698,593,242,1.31086e-05,0.00000000779
124,2698,595,242,1.31615e-05,0.00000000785
124.5,2698,597,242,1.32143e-05,0.0000000079
125,2698,599,241,1.3267e-05,0.00000000796
125.5,2698,601,241,1.33196e-05,0.00000000802
126,2698,603,240,1.33722e-05,0.00000000807
126.5,2698,605,240,1.34247e-05,0.00000000813
127,2698,607,240,1.34771e-05,0.00000000818
127.5,2698,609,240,1.35295e-05,0.00000000824
128,2698,611,239,1.35817e-05,0.0000000083
128.5,2698,613,239,1.36339e-05,0.00000000835
129,2698,615,239,1.3686e-05,0.00000000841
129.5,2698,617,238,1.3738e-05,0.00000000847
130,2698,618,238,1.37899e-05,0.00000000852
130.5,2698,620,238,1.38417e-05,0.00000000858
131,2698,622,238,1.38935e-05,0.00000000864
131.5,2698,624,238,1.39451e-05,0.00000000869
132,2698,626,237,1.39967e-05,0.00000000875
132.5,2698,628,237,1.40482e-05,0.00000000881
133,2698,629,237,1.40996e-05,0.00000000886
133.5,2698,631,237,1.41509e-05,0.00000000892
134,2698,633,237,1.42021e-05,0.00000000898
134.5,2698,635,237,1.42532e-05,0.00000000903
135,2698,636,236,1.43043e-05,0.00000000909
135.5,2698,638,236,1.43552e-05,0.00000000915
136,2698,640,236,1.44061e-05,0.0000000092
136.5,2698,642,236,1.44569e-05,0.00000000926
137,2698,643,236,1.45075e-05,0.00000000931
137.5,2698,645,236,1.45581e-05,0.00000000937
138,2698,647,236,1.46086e-05,0.00000000943
138.5,2698,648,236,1.4659e-05,0.00000000948
139,2698,650,236,1.47093e-05,0.00000000954
139.5,2698,652,236,1.47595e-05,0.0000000096
140,2698,653,236,1.48095e-05,0.00000000965
140.5,2698,655,236,1.48595e-05,0.00000000971
141,2698,657,236,1.49094e-05,0.00000000977
141.5,2698,658,236,1.49592e-05,0.00000000982
142,2698,660,236,1.50089e-05,0.00000000988
142.5,2698,661,236,1.50585e-05,0.00000000994
143,2698,663,236,1.5108e-05,0.00000000999
143.5,2698,665,236,1.51574e-05,0.00000001
144,2698,666,236,1.52067e-05,0.0000000101
144.5,2698,668,236,1.52559e-05,0.0000000102
145,2698,669,236,1.5305e-05,0.0000000102
145.5,2698,671,236,1.5354e-05,0.0000000103
146,2698,672,236,1.54029e-05,0.0000000103
146.5,2698,674,236,1.54517e-05,0.0000000104
147,2698,675,236,1.55003e-05,0.0000000104
147.5,2698,677,236,1.55489e-05,0.0000000105
148,2698,678,236,1.55973e-05,0.0000000106
148.5,2698,680,236,1.56457e-05,0.0000000106
149,2698,681,236,1.56939e-05,0.0000000107
149.5,2698,682,237,1.5742e-05,0.0000000107
150,2698,684,237,1.57901e-05,0.0000000108
150.5,2698,686,236,1.5838e-05,0.0000000108
151,2698,687,236,1.58858e-05,0.0000000109
151.5,2698,689,236,1.59334e-05,0.0000000109
152,2698,690,236,1.5981e-05,0.000000011
152.5,2698,691,236,1.60285e-05,0.0000000111
153,2698,693,236,1.60758e-05,0.0000000111
153.5,2698,694,235,1.6123e-05,0.0000000112
154,2698,696,235,1.61701e-05,0.0000000112
154.5,2698,697,235,1.62171e-05,0.0000000113
155,2698,699,235,1.6264e-05,0.0000000113
155.5,2698,700,235,1.63107e-05,0.0000000114
156,2698,702,235,1.63574e-05,0.0000000114
156.5,2698,703,234,1.64039e-05,0.0000000115
157,2698,704,234,1.64503e-05,0.0000000115
157.5,2698,706,234,1.64966e-05,0.0000000116
158,2698,707,234,1.65428e-05,0.0000000117
158.5,2698,708,234,1.65888e-05,0.0000000117
159,2698,710,234,1.66347e-05,0.0000000118
159.5,2698,711,234,1.66805e-05,0.0000000118
160,2698,713,234,1.67262e-05,0.0000000119
160.5,2698,714,233,1.67717e-05,0.0000000119
161,2698,715,233,1.68172e-05,0.000000012
161.5,2698,717,233,1.68624e-05,0.000000012
162,2698,718,233,1.69076e-05,0.0000000121
162.5,2698,719,233,1.69527e-05,0.0000000121
163,2698,720,233,1.69976e-05,0.0000000122
163.5,2698,722,233,1.70424e-05,0.0000000123
164,2698,723,233,1.7087e-05,0.0000000123
164.5,2698,724,233,1.71316e-05,0.0000000124
165,2698,726,233,1.7176e-05,0.0000000124
165.5,2698,727,233,1.72202e-05,0.0000000125
166,2698,728,232,1.72644e-05,0.0000000125
166.5,2698,729,232,1.73084e-05,0.0000000126
167,2698,731,232,1.73523e-05,0.0000000126
167.5,2698,732,232,1.7396e-05,0.0000000127
168,2698,733,232,1.74396e-05,0.0000000127
168.5,2698,734,232,1.74831e-05,0.0000000128
169,2698,735,232,1.75264e-05,0.0000000129
169.5,2698,737,232,1.75696e-05,0.0000000129
170,2698,738,232,1.76127e-05,0.000000013
170.5,2698,739,232,1.76556e-05,0.000000013
171,2698,740,232,1.76984e-05,0.0000000131
171.5,2698,741,232,1.77411e-05,0.0000000131
172,2698,743,232,1.77836e-05,0.0000000132
172.5,2698,744,232,1.7826e-05,0.0000000132
173,2698,745,232,1.78682e-05,0.0000000133
173.5,2698,746,232,1.79103e-05,0.0000000133
174,2698,747,232,1.79523e-05,0.0000000134
174.5,2698,748,232,1.79941e-05,0.0000000134
175,2698,749,232,1.80357e-05,0.0000000135
175.5,2698,750,232,1.80773e-05,0.0000000136
176,2698,752,231,1.81187e-05,0.0000000136
176.5,2698,753,231,1.81599e-05,0.0000000137
177,2698,754,231,1.8201e-05,0.0000000137
177.5,2698,755,231,1.82419e-05,0.0000000138
178,2698,756,231,1.82827e-05,0.0000000138
178.5,2698,757,231,1.83234e-05,0.0000000139
179,2698,758,231,1.83639e-05,0.0000000139
179.5,2698,759,231,1.84042e-05,0.000000014
180,2698,760,231,1.84444e-05,0.000000014
180.5,2698,761,231,1.84845e-05,0.0000000141
181,2698,762,231,1.85244e-05,0.0000000141
181.5,2698,763,231,1.85641e-05,0.0000000142
182,2698,764,231,1.86037e-05,0.0000000143
182.5,2698,765,231,1.86432e-05,0.0000000143
183,2698,766,231,1.86825e-05,0.0000000144
183.5,2698,767,231,1.87216e-05,0.0000000144
184,2698,768,231,1.87606e-05,0.0000000145
184.5,2698,769,231,1.87994e-05,0.0000000145
185,2698,770,231,1.88381e-05,0.0000000146
185.5,2698,771,231,1.88766e-05,0.0000000146
186,2698,772,231,1.8915e-05,0.0000000147
186.5,2698,773,231,1.89532e-05,0.0000000147
187,2698,774,231,1.89913e-05,0.0000000148
187.5,2698,775,231,1.90291e-05,0.0000000148
188,2698,776,231,1.90669e-05,0.0000000149
188.5,2698,777,231,1.91044e-05,0.000000015
189,2698,778,231,1.91418e-05,0.000000015
189.5,2698,779,231,1.91791e-05,0.0000000151
190,2698,780,231,1.92162e-05,0.0000000151
190.5,2698,781,232,1.92531e-05,0.0000000152
191,2698,782,232,1.92898e-05,0.0000000152
191.5,2698,782,232,1.93264e-05,0.0000000153
192,2698,783,232,1.93629e-05,0.0000000153
192.5,2698,784,232,1.93991e-05,0.0000000154
193,2698,785,232,1.94352e-05,0.0000000154
193.5,2698,786,232,1.94711e-05,0.0000000155
194,2698,787,232,1.95069e-05,0.0000000155
194.5,2698,788,232,1.95425e-05,0.0000000156
195,2698,789,232,1.95779e-05,0.0000000157
195.5,2698,789,232,1.96132e-05,0.0000000157
196,2698,790,232,1.96482e-05,0.0000000158
196.5,2698,791,232,1.96832e-05,0.0000000158
197,2698,792,232,1.97179e-05,0.0000000159
197.5,2698,793,232,1.97525e-05,0.0000000159
198,2698,794,232,1.97869e-05,0.000000016
198.5,2698,795,232,1.98211e-05,0.000000016
199,2698,795,232,1.98551e-05,0.0000000161
199.5,2698,796,232,1.9889e-05,0.0000000161
200,2698,797,232,1.99227e-05,0.0000000162
200.5,2698,798,232,1.99562e-05,0.0000000162
201,2698,799,232,1.99896e-05,0.0000000163
201.5,2698,799,232,2.00228e-05,0.0000000164
202,2698,800,232,2.00558e-05,0.0000000164
202.5,2698,801,232,2.00886e-05,0.0000000165
203,2698,802,232,2.01212e-05,0.0000000165
203.5,2698,803,232,2.01537e-05,0.0000000166
204,2698,803,232,2.01859e-05,0.0000000166
204.5,2698,804,232,2.0218e-05,0.0000000167
205,2698,805,232,2.02499e-05,0.0000000167
205.5,2698,806,232,2.02817e-05,0.0000000168
206,2698,806,232,2.03132e-05,0.0000000168
206.5,2698,807,232,2.03446e-05,0.0000000169
207,2698,808,232,2.03758e-05,0.0000000169
207.5,2698,809,232,2.04067e-05,0.000000017
208,2698,809,232,2.04376e-05,0.000000017
208.5,2698,810,232,2.04682e-05,0.0000000171
209,2698,811,232,2.04986e-05,0.0000000172
209.5,2698,812,232,2.05289e-05,0.0000000172
210,2698,812,232,2.05589e-05,0.0000000173
210.5,2698,813,232,2.05888e-05,0.0000000173
211,2698,814,232,2.06185e-05,0.0000000174
211.5,2698,815,232,2.0648e-05,0.0000000174
212,2698,815,232,2.06773e-05,0.0000000175
212.5,2698,816,232,2.07064e-05,0.0000000175
213,2698,817,232,2.07353e-05,0.0000000176
213.5,2698,817,232,2.0764e-05,0.0000000176
214,2698,818,232,2.07925e-05,0.0000000177
214.5,2698,819,232,2.08209e-05,0.0000000177
215,2698,819,232,2.0849e-05,0.0000000178
215.5,2698,820,232,2.0877e-05,0.0000000179
216,2698,821,232,2.09047e-05,0.0000000179
216.5,2698,821,232,2.09323e-05,0.000000018
217,2698,822,232,2.09596e-05,0.000000018
217.5,2698,823,232,2.09868e-05,0.0000000181
218,2698,823,232,2.10138e-05,0.0000000181
218.5,2698,824,231,2.10405e-05,0.0000000182
219,2698,825,231,2.10671e-05,0.0000000182
219.5,2698,825,231,2.10934e-05,0.0000000183
220,2698,826,231,2.11196e-05,0.0000000183
220.5,2698,827,231,2.11456e-05,0.0000000184
221,2698,827,231,2.11713e-05,0.0000000184
221.5,2698,828,231,2.11969e-05,0.0000000185
222,2698,829,231,2.12222e-05,0.0000000186
222.5,2698,829,231,2.12474e-05,0.0000000186
223,2698,830,231,2.12723e-05,0.0000000187
223.5,2698,830,231,2.1297e-05,0.0000000187
224,2698,831,231,2.13216e-05,0.0000000188
224.5,2698,832,231,2.13459e-05,0.0000000188
225,2698,832,231,2.137e-05,0.0000000189
225.5,2698,833,231,2.13939e-05,0.0000000189
226,2698,833,231,2.14176e-05,0.000000019
226.5,2698,834,231,2.14411e-05,0.000000019
227,2698,835,231,2.14644e-05,0.0000000191
227.5,2698,835,231,2.14875e-05,0.0000000191
228,2698,836,231,2.15103e-05,0.0000000192
228.5,2698,836,231,2.1533e-05,0.0000000193
229,2698,837,231,2.15554e-05,0.0000000193
229.5,2698,838,231,2.15776e-05,0.0000000194
230,2698,838,231,2.15996e-05,0.0000000194
230.5,2698,839,231,2.16214e-05,0.0000000195
231,2698,839,231,2.1643e-05,0.0000000195
231.5,2698,840,231,2.16643e-05,0.0000000196
232,2698,840,231,2.16855e-05,0.0000000196
232.5,2698,841,231,2.17064e-05,0.0000000197
233,2698,841,231,2.17271e-05,0.0000000197
233.5,2698,842,231,2.17476e-05,0.0000000198
234,2698,843,231,2.17679e-05,0.0000000198
234.5,2698,843,231,2.17879e-05,0.0000000199
235,2698,844,231,2.18078e-05,0.0000000199
235.5,2698,844,231,2.18274e-05,0.00000002
236,2698,845,231,2.18468e-05,0.0000000201
236.5,2698,845,231,2.18659e-05,0.0000000201
237,2698,846,231,2.18849e-05,0.0000000202
237.5,2698,846,231,2.19036e-05,0.0000000202
238,2698,847,231,2.19221e-05,0.0000000203
238.5,2698,847,231,2.19404e-05,0.0000000203
239,2698,848,231,2.19584e-05,0.0000000204
239.5,2698,848,231,2.19762e-05,0.0000000204
240,2698,849,231,2.21975e-05,0.0000000205
240.5,2698,850,231,2.22263e-05,0.0000000205
241,2698,850,231,2.22548e-05,0.0000000206
241.5,2698,851,231,2.22831e-05,0.0000000207
242,2698,851,231,2.23111e-05,0.0000000207
242.5,2698,852,231,2.23388e-05,0.0000000208
243,2698,852,231,2.23662e-05,0.0000000208
243.5,2698,853,231,2.23933e-05,0.0000000209
244,2698,853,231,2.24201e-05,0.0000000209
244.5,2698,854,231,2.24466e-05,0.000000021
245,2698,854,231,2.24727e-05,0.000000021
245.5,2698,855,231,2.24985e-05,0.0000000211
246,2698,855,231,2.2524e-05,0.0000000211
246.5,2698,856,231,2.25491e-05,0.0000000212
247,2698,856,231,2.25739e-05,0.0000000212
247.5,2698,857,231,2.25983e-05,0.0000000213
248,2698,857,231,2.26223e-05,0.0000000214
248.5,2698,858,231,2.2646e-05,0.0000000214
249,2698,858,231,2.26692e-05,0.0000000215
249.5,2698,859,231,2.26921e-05,0.0000000215
250,2698,859,231,2.27145e-05,0.0000000216
250.5,2698,859,231,2.27366e-05,0.0000000216
251,2698,860,231,2.27582e-05,0.0000000217
251.5,2698,860,231,2.27793e-05,0.0000000217
252,2698,861,231,2.28001e-05,0.0000000218
252.5,2698,861,231,2.28204e-05,0.0000000218
253,2698,862,231,2.28402e-05,0.0000000219
253.5,2698,862,231,2.28596e-05,0.0000000219
254,2698,863,232,2.28784e-05,0.000000022
254.5,2698,863,232,2.28968e-05,0.0000000221
255,2698,864,232,2.29147e-05,0.0000000221
255.5,2698,864,232,2.29321e-05,0.0000000222
256,2698,865,232,2.2949e-05,0.0000000222
256.5,2698,865,232,2.29653e-05,0.0000000223
257,2698,866,232,2.29811e-05,0.0000000223
257.5,2698,866,232,2.29964e-05,0.0000000224
258,2698,867,232,2.30111e-05,0.0000000224
258.5,2698,867,232,2.30252e-05,0.0000000225
259,2698,868,232,2.30388e-05,0.0000000225
259.5,2698,868,232,2.30517e-05,0.0000000226
260,2698,869,232,2.30641e-05,0.0000000227
260.5,2698,869,232,2.30758e-05,0.0000000227
261,2698,869,232,2.3087e-05,0.0000000228
261.5,2698,870,232,2.30974e-05,0.0000000228
262,2698,870,232,2.31073e-05,0.0000000229
262.5,2698,871,232,2.31165e-05,0.0000000229
263,2698,871,232,2.3125e-05,0.000000023
263.5,2698,872,232,2.31328e-05,0.000000023
264,2698,872,232,2.314e-05,0.0000000231
264.5,2698,873,232,2.31465e-05,0.0000000231
265,2698,873,232,2.31522e-05,0.0000000232
265.5,2698,873,232,2.31572e-05,0.0000000233
266,2698,874,232,2.31615e-05,0.0000000233
266.5,2698,874,232,2.3165e-05,0.0000000234
267,2698,875,232,2.31677e-05,0.0000000234
267.5,2698,875,232,2.31697e-05,0.0000000235
268,2698,876,232,2.31709e-05,0.0000000235
268.5,2698,876,232,2.31713e-05,0.0000000236
269,2698,877,232,2.31708e-05,0.0000000236
269.5,2698,877,232,2.31696e-05,0.0000000237
270,2698,877,232,2.31675e-05,0.0000000237
270.5,2698,878,232,2.31645e-05,0.0000000238
271,2698,878,232,2.31607e-05,0.0000000239
271.5,2698,879,232,2.3156e-05,0.0000000239
272,2698,879,232,2.31504e-05,0.000000024
272.5,2698,880,232,2.31439e-05,0.000000024
273,2698,880,232,2.31364e-05,0.0000000241
273.5,2698,880,232,2.3128e-05,0.0000000241
274,2698,881,232,2.31187e-05,0.0000000242
274.5,2698,881,232,2.31084e-05,0.0000000242
275,2698,882,232,2.30971e-05,0.0000000243
275.5,2698,882,232,2.30849e-05,0.0000000243
276,2698,883,232,2.30716e-05,0.0000000244
276.5,2698,883,232,2.30573e-05,0.0000000245
277,2698,883,232,2.30419e-05,0.0000000245
277.5,2698,884,232,2.30255e-05,0.0000000246
278,2698,884,232,2.3008e-05,0.0000000246
278.5,2698,885,232,2.29894e-05,0.0000000247
279,2698,885,232,2.29698e-05,0.0000000247
279.5,2698,885,232,2.2949e-05,0.0000000248
280,2698,886,232,2.2927e-05,0.0000000248
280.5,2698,886,232,2.29039e-05,0.0000000249
281,2698,887,232,2.28797e-05,0.000000025
281.5,2698,887,232,2.28543e-05,0.000000025
282,2698,888,232,2.28276e-05,0.0000000251
282.5,2698,888,232,2.27998e-05,0.0000000251
283,2698,888,232,2.27707e-05,0.0000000252
283.5,2698,889,232,2.27404e-05,0.0000000252
284,2698,889,232,2.27088e-05,0.0000000253
284.5,2698,890,232,2.26759e-05,0.0000000253
285,2698,890,232,2.26417e-05,0.0000000254
285.5,2698,890,232,2.26062e-05,0.0000000254
286,2698,891,232,2.25693e-05,0.0000000255
286.5,2698,891,232,2.25311e-05,0.0000000256
287,2698,892,232,2.24916e-05,0.0000000256
287.5,2698,892,232,2.24506e-05,0.0000000257
288,2698,892,232,2.24082e-05,0.0000000257
288.5,2698,893,232,2.23644e-05,0.0000000258
289,2698,893,232,2.23192e-05,0.0000000258
289.5,2698,894,232,2.22724e-05,0.0000000259
290,2698,894,232,2.22242e-05,0.0000000259
290.5,2698,894,232,2.21745e-05,0.000000026
291,2698,895,233,2.21233e-05,0.0000000261
291.5,2698,895,233,2.20705e-05,0.0000000261
292,2698,896,233,2.20162e-05,0.0000000262
292.5,2698,896,233,2.19603e-05,0.0000000262
293,2698,896,233,2.19028e-05,0.0000000263
293.5,2698,897,233,2.18436e-05,0.0000000263
294,2698,897,233,2.17829e-05,0.0000000264
294.5,2698,898,233,2.17204e-05,0.0000000264
295,2698,898,233,2.16563e-05,0.0000000265
295.5,2698,898,233,2.15905e-05,0.0000000266
296,2698,899,233,2.1523e-05,0.0000000266
296.5,2698,899,233,2.14537e-05,0.0000000267
297,2698,900,233,2.13826e-05,0.0000000267
297.5,2698,900,233,2.13098e-05,0.0000000268
298,2698,900,233,2.12352e-05,0.0000000268
298.5,2698,901,233,2.11587e-05,0.0000000269
299,2698,901,233,2.10804e-05,0.0000000269
299.5,2698,902,233,2.10002e-05,0.000000027
300,2698,902,233,2.09181e-05,0.0000000271