File: SolidProps/lib/CARBON_FIBER_PARALLEL.csv
T/K,rho/(kg/m3),cp/(J/(kg.K)),K/(W/(m.K)),alpha_thermal/(1/K),resistivity/(ohm.m)
1,1774,0.0184,0.018,-0.000001,0.00002
1.5,1774,0.0863,0.0187,-0.000001,0.00002
2,1774,0.24,0.02,-0.000001,0.00002
2.5,1774,0.474,0.0217,-0.000001,0.0000199
3,1774,0.783,0.0238,-0.000001,0.0000199
3.5,1774,1.16,0.0263,-0.000001,0.0000199
4,1774,1.61,0.0289,-0.000001,0.0000199
4.5,1774,2.11,0.0317,-0.000001,0.0000199
5,1774,2.61,0.0332,-0.000001,0.0000199
5.5,1774,3.18,0.035,-0.000001,0.0000199
6,1774,3.79,0.0368,-0.000001,0.0000198
6.5,1774,4.45,0.0386,-0.000001,0.0000198
7,1774,5.14,0.0403,-0.000001,0.0000198
7.5,1774,5.87,0.0419,-0.000001,0.0000198
8,1774,6.63,0.0435,-0.000001,0.0000198
8.5,1774,7.43,0.0452,-0.000001,0.0000198
9,1774,8.26,0.0468,-0.000001,0.0000198
9.5,1774,9.16,0.048,-0.000001,0.0000198
10,1774,10,0.05,-0.000001,0.0000197
10.5,1774,10.9,0.052,-0.000001,0.0000197
11,1774,11.7,0.0541,-0.000001,0.0000197
11.5,1774,12.6,0.0562,-0.000001,0.0000197
12,1774,13.6,0.0584,-0.000001,0.0000197
12.5,1774,14.5,0.0606,-0.000001,0.0000197
13,1774,15.5,0.0629,-0.000001,0.0000197
13.5,1774,16.4,0.0653,-0.000001,0.0000197
14,1774,17.4,0.0676,-0.000001,0.0000196
14.5,1774,18.4,0.0701,-0.000001,0.0000196
15,1774,19.4,0.0725,-0.000001,0.0000196
15.5,1774,20.5,0.075,-0.000001,0.0000196
16,1774,21.5,0.0776,-0.000001,0.0000196
16.5,1774,22.5,0.0802,-0.000001,0.0000196
17,1774,23.6,0.0829,-0.000001,0.0000196
17.5,1774,24.6,0.0856,-0.000001,0.0000196
18,1774,25.7,0.0884,-0.000001,0.0000195
18.5,1774,26.8,0.0912,-0.000001,0.0000195
19,1774,27.8,0.0941,-0.000001,0.0000195
19.5,1774,29,0.0971,-0.000001,0.0000195
20,1774,30,0.1,-0.000001,0.0000195
20.5,1774,31,0.103,-0.000001,0.0000195
21,1774,32,0.106,-0.000001,0.0000195
21.5,1774,33,0.109,-0.000001,0.0000195
22,1774,34,0.112,-0.000001,0.0000194
22.5,1774,35,0.115,-0.000001,0.0000194
23,1774,36,0.119,-0.000001,0.0000194
23.5,1774,37.1,0.122,-0.000001,0.0000194
24,1774,38.1,0.125,-0.000001,0.0000194
24.5,1774,39.1,0.129,-0.000001,0.0000194
25,1774,40.1,0.132,-0.000001,0.0000194
25.5,1774,41.1,0.136,-0.000001,0.0000193
26,1774,42.2,0.139,-0.000001,0.0000193
26.5,1774,43.2,0.143,-0.000001,0.0000193
27,1774,44.3,0.147,-0.000001,0.0000193
27.5,1774,45.3,0.15,-0.000001,0.0000193
28,1774,46.4,0.154,-0.000001,0.0000193
28.5,1774,47.4,0.158,-0.000001,0.0000193
29,1774,48.5,0.162,-0.000001,0.0000193
29.5,1774,49.6,0.166,-0.000001,0.0000192
30,1774,50.6,0.17,-0.000001,0.0000192
30.5,1774,51.6,0.174,-0.000001,0.0000192
31,1774,52.7,0.178,-0.000001,0.0000192
31.5,1774,53.7,0.183,-0.000001,0.0000192
32,1774,54.8,0.187,-0.000001,0.0000192
32.5,1774,55.9,0.192,-0.000001,0.0000192
33,1774,56.9,0.196,-0.000001,0.0000192
33.5,1774,58,0.201,-0.000001,0.0000191
34,1774,59.1,0.205,-0.000001,0.0000191
34.5,1774,60.2,0.21,-0.000001,0.0000191
35,1774,61.4,0.215,-0.000001,0.0000191
35.5,1774,62.5,0.219,-0.000001,0.0000191
36,1774,63.7,0.224,-0.000001,0.0000191
36.5,1774,64.8,0.229,-0.000001,0.0000191
37,1774,66,0.234,-0.000001,0.000019
37.5,1774,67.2,0.239,-0.000001,0.000019
38,1774,68.4,0.244,-0.000001,0.000019
38.5,1774,69.7,0.249,-0.000001,0.000019
39,1774,70.9,0.255,-0.000001,0.000019
39.5,1774,72.1,0.26,-0.000001,0.000019
40,1774,73.5,0.265,-0.000001,0.000019
40.5,1774,74.9,0.27,-0.000001,0.000019
41,1774,76.3,0.276,-0.000001,0.0000189
41.5,1774,77.8,0.281,-0.000001,0.0000189
42,1774,79.3,0.287,-0.000001,0.0000189
42.5,1774,80.8,0.292,-0.000001,0.0000189
43,1774,82.3,0.298,-0.000001,0.0000189
43.5,1774,83.8,0.304,-0.000001,0.0000189
44,1774,85.4,0.309,-0.000001,0.0000189
44.5,1774,86.9,0.315,-0.000001,0.0000189
45,1774,88.5,0.321,-0.000001,0.0000188
45.5,1774,90.1,0.327,-0.000001,0.0000188
46,1774,91.7,0.333,-0.000001,0.0000188
46.5,1774,93.3,0.338,-0.000001,0.0000188
47,1774,95,0.344,-0.000001,0.0000188
47.5,1774,96.6,0.35,-0.000001,0.0000188
48,1774,98.3,0.356,-0.000001,0.0000188
48.5,1774,99.9,0.362,-0.000001,0.0000188
49,1774,102,0.368,-0.000001,0.0000187
49.5,1774,103,0.375,-0.000001,0.0000187
50,1774,105,0.38,-0.000001,0.0000187
50.5,1774,107,0.385,-0.000001,0.0000187
51,1774,108,0.391,-0.000001,0.0000187
51.5,1774,110,0.396,-0.000001,0.0000187
52,1774,112,0.401,-0.000001,0.0000187
52.5,1774,114,0.407,-0.000001,0.0000187
53,1774,115,0.412,-0.000001,0.0000186
53.5,1774,117,0.418,-0.000001,0.0000186
54,1774,119,0.423,-0.000001,0.0000186
54.5,1774,121,0.429,-0.000001,0.0000186
55,1774,122,0.435,-0.000001,0.0000186
55.5,1774,124,0.441,-0.000001,0.0000186
56,1774,126,0.447,-0.000001,0.0000186
56.5,1774,128,0.453,-0.000001,0.0000186
57,1774,129,0.459,-0.000001,0.0000185
57.5,1774,131,0.465,-0.000001,0.0000185
58,1774,133,0.472,-0.000001,0.0000185
58.5,1774,135,0.479,-0.000001,0.0000185
59,1774,136,0.486,-0.000001,0.0000185
59.5,1774,138,0.491,-0.000001,0.0000185
60,1774,140,0.5,-0.000001,0.0000185
60.5,1774,142,0.509,-0.000001,0.0000184
61,1774,143,0.518,-0.000001,0.0000184
61.5,1774,145,0.527,-0.000001,0.0000184
62,1774,147,0.536,-0.000001,0.0000184
62.5,1774,148,0.546,-0.000001,0.0000184
63,1774,150,0.555,-0.000001,0.0000184
63.5,1774,151,0.565,-0.000001,0.0000184
64,1774,153,0.575,-0.000001,0.0000184
64.5,1774,155,0.585,-0.000001,0.0000183
65,1774,156,0.595,-0.000001,0.0000183
65.5,1774,158,0.605,-0.000001,0.0000183
66,1774,160,0.616,-0.000001,0.0000183
66.5,1774,161,0.626,-0.000001,0.0000183
67,1774,163,0.636,-0.000001,0.0000183
67.5,1774,165,0.647,-0.000001,0.0000183
68,1774,166,0.657,-0.000001,0.0000183
68.5,1774,168,0.668,-0.000001,0.0000182
69,1774,170,0.679,-0.000001,0.0000182
69.5,1774,171,0.691,-0.000001,0.0000182
70,1774,173,0.7,-0.000001,0.0000182
70.5,1774,175,0.709,-0.000001,0.0000182
71,1774,177,0.718,-0.000001,0.0000182
71.5,1774,179,0.726,-0.000001,0.0000182
72,1774,181,0.735,-0.000001,0.0000181
72.5,1774,183,0.744,-0.000001,0.0000181
73,1774,185,0.753,-0.000001,0.0000181
73.5,1774,186,0.762,-0.000001,0.0000181
74,1774,188,0.772,-0.000001,0.0000181
74.5,1774,190,0.781,-0.000001,0.0000181
75,1774,192,0.791,-0.000001,0.0000181
75.5,1774,194,0.8,-0.000001,0.0000181
76,1774,196,0.81,-0.000001,0.000018
76.5,1774,198,0.821,-0.000001,0.000018
77,1774,200,0.831,-0.000001,0.000018
77.5,1774,202,0.842,-0.000001,0.000018
78,1774,204,0.853,-0.000001,0.000018
78.5,1774,206,0.864,-0.000001,0.000018
79,1774,207,0.876,-0.000001,0.000018
79.5,1774,209,0.884,-0.000001,0.000018
80,1774,211,0.9,-0.000001,0.0000179
80.5,1774,212,0.917,-0.000001,0.0000179
81,1774,214,0.934,-0.000001,0.0000179
81.5,1774,215,0.951,-0.000001,0.0000179
82,1774,217,0.968,-0.000001,0.0000179
82.5,1774,218,0.986,-0.000001,0.0000179
83,1774,220,1,-0.000001,0.0000179
83.5,1774,221,1.02,-0.000001,0.0000179
84,1774,222,1.04,-0.000001,0.0000178
84.5,1774,224,1.06,-0.000001,0.0000178
85,1774,225,1.08,-0.000001,0.0000178
85.5,1774,227,1.09,-0.000001,0.0000178
86,1774,228,1.11,-0.000001,0.0000178
86.5,1774,229,1.13,-0.000001,0.0000178
87,1774,231,1.15,-0.000001,0.0000178
87.5,1774,232,1.17,-0.000001,0.0000178
88,1774,233,1.18,-0.000001,0.0000177
88.5,1774,235,1.2,-0.000001,0.0000177
89,1774,236,1.22,-0.000001,0.0000177
89.5,1774,237,1.24,-0.000001,0.0000177
90,1774,239,1.25,-0.000001,0.0000177
90.5,1774,241,1.26,-0.000001,0.0000177
91,1774,242,1.27,-0.000001,0.0000177
91.5,1774,244,1.29,-0.000001,0.0000177
92,1774,246,1.3,-0.000001,0.0000176
92.5,1774,247,1.31,-0.000001,0.0000176
93,1774,249,1.32,-0.000001,0.0000176
93.5,1774,251,1.33,-0.000001,0.0000176
94,1774,252,1.34,-0.000001,0.0000176
94.5,1774,254,1.35,-0.000001,0.0000176
95,1774,256,1.36,-0.000001,0.0000176
95.5,1774,258,1.36,-0.000001,0.0000175
96,1774,259,1.37,-0.000001,0.0000175
96.5,1774,261,1.38,-0.000001,0.0000175
97,1774,263,1.39,-0.000001,0.0000175
97.5,1774,265,1.4,-0.000001,0.0000175
98,1774,267,1.4,-0.000001,0.0000175
98.5,1774,268,1.41,-0.000001,0.0000175
99,1774,270,1.42,-0.000001,0.0000175
99.5,1774,272,1.42,-0.000001,0.0000174
100,1774,274,1.43,-0.000001,0.0000174
100.5,1774,276,1.44,-0.000001,0.0000174
101,1774,277,1.45,-0.000001,0.0000174
101.5,1774,279,1.46,-0.000001,0.0000174
102,1774,281,1.48,-0.000001,0.0000174
102.5,1774,283,1.49,-0.000001,0.0000174
103,1774,284,1.5,-0.000001,0.0000174
103.5,1774,286,1.51,-0.000001,0.0000173
104,1774,288,1.53,-0.000001,0.0000173
104.5,1774,289,1.54,-0.000001,0.0000173
105,1774,291,1.55,-0.000001,0.0000173
105.5,1774,293,1.57,-0.000001,0.0000173
106,1774,294,1.58,-0.000001,0.0000173
106.5,1774,296,1.59,-0.000001,0.0000173
107,1774,298,1.61,-0.000001,0.0000172
107.5,1774,300,1.62,-0.000001,0.0000172
108,1774,301,1.63,-0.000001,0.0000172
108.5,1774,303,1.65,-0.000001,0.0000172
109,1774,305,1.66,-0.000001,0.0000172
109.5,1774,306,1.68,-0.000001,0.0000172
110,1774,308,1.69,-0.000001,0.0000172
110.5,1774,310,1.71,-0.000001,0.0000172
111,1774,311,1.72,-0.000001,0.0000171
111.5,1774,313,1.74,-0.000001,0.0000171
112,1774,315,1.75,-0.000001,0.0000171
112.5,1774,316,1.77,-0.000001,0.0000171
113,1774,318,1.78,-0.000001,0.0000171
113.5,1774,320,1.8,-0.000001,0.0000171
114,1774,321,1.82,-0.000001,0.0000171
114.5,1774,323,1.83,-0.000001,0.0000171
115,1774,325,1.85,-0.000001,0.000017
115.5,1774,326,1.87,-0.000001,0.000017
116,1774,328,1.88,-0.000001,0.000017
116.5,1774,329,1.9,-0.000001,0.000017
117,1774,331,1.91,-0.000001,0.000017
117.5,1774,333,1.93,-0.000001,0.000017
118,1774,334,1.95,-0.000001,0.000017
118.5,1774,336,1.97,-0.000001,0.000017
119,1774,338,1.98,-0.000001,0.0000169
119.5,1774,339,2,-0.000001,0.0000169
120,1774,341,2.02,-0.000001,0.0000169
120.5,1774,343,2.03,-0.000001,0.0000169
121,1774,344,2.05,-0.000001,0.0000169
121.5,1774,346,2.07,-0.000001,0.0000169
122,1774,347,2.09,-0.000001,0.0000169
122.5,1774,349,2.11,-0.000001,0.0000168
123,1774,351,2.12,-0.000001,0.0000168
123.5,1774,352,2.14,-0.000001,0.0000168
124,1774,354,2.16,-0.000001,0.0000168
124.5,1774,355,2.18,-0.000001,0.0000168
125,1774,357,2.2,-0.000001,0.0000168
125.5,1774,359,2.21,-0.000001,0.0000168
126,1774,360,2.23,-0.000001,0.0000168
126.5,1774,362,2.25,-0.000001,0.0000167
127,1774,364,2.27,-0.000001,0.0000167
127.5,1774,365,2.29,-0.000001,0.0000167
128,1774,367,2.31,-0.000001,0.0000167
128.5,1774,368,2.33,-0.000001,0.0000167
129,1774,370,2.34,-0.000001,0.0000167
129.5,1774,372,2.36,-0.000001,0.0000167
130,1774,373,2.38,-0.000001,0.0000167
130.5,1774,375,2.4,-0.000001,0.0000166
131,1774,376,2.42,-0.000001,0.0000166
131.5,1774,378,2.44,-0.000001,0.0000166
132,1774,379,2.46,-0.000001,0.0000166
132.5,1774,381,2.48,-0.000001,0.0000166
133,1774,383,2.5,-0.000001,0.0000166
133.5,1774,384,2.52,-0.000001,0.0000166
134,1774,386,2.54,-0.000001,0.0000166
134.5,1774,387,2.55,-0.000001,0.0000165
135,1774,389,2.57,-0.000001,0.0000165
135.5,1774,391,2.59,-0.000001,0.0000165
136,1774,392,2.61,-0.000001,0.0000165
136.5,1774,394,2.63,-0.000001,0.0000165
137,1774,395,2.65,-0.000001,0.0000165
137.5,1774,397,2.67,-0.000001,0.0000165
138,1774,398,2.69,-0.000001,0.0000164
138.5,1774,400,2.71,-0.000001,0.0000164
139,1774,402,2.73,-0.000001,0.0000164
139.5,1774,403,2.75,-0.000001,0.0000164
140,1774,405,2.77,-0.000001,0.0000164
140.5,1774,406,2.79,-0.000001,0.0000164
141,1774,408,2.81,-0.000001,0.0000164
141.5,1774,409,2.83,-0.000001,0.0000164
142,1774,411,2.84,-0.000001,0.0000163
142.5,1774,413,2.86,-0.000001,0.0000163
143,1774,414,2.88,-0.000001,0.0000163
143.5,1774,416,2.9,-0.000001,0.0000163
144,1774,417,2.92,-0.000001,0.0000163
144.5,1774,419,2.94,-0.000001,0.0000163
145,1774,420,2.96,-0.000001,0.0000163
145.5,1774,422,2.98,-0.000001,0.0000163
146,1774,424,3,-0.000001,0.0000162
146.5,1774,425,3.02,-0.000001,0.0000162
147,1774,427,3.04,-0.000001,0.0000162
147.5,1774,428,3.06,-0.000001,0.0000162
148,1774,430,3.07,-0.000001,0.0000162
148.5,1774,431,3.09,-0.000001,0.0000162
149,1774,433,3.11,-0.000001,0.0000162
149.5,1774,434,3.14,-0.000001,0.0000162
150,1774,436,3.15,-0.000001,0.0000161
150.5,1774,438,3.16,-0.000001,0.0000161
151,1774,439,3.18,-0.000001,0.0000161
151.5,1774,441,3.19,-0.000001,0.0000161
152,1774,442,3.21,-0.000001,0.0000161
152.5,1774,444,3.22,-0.000001,0.0000161
153,1774,445,3.23,-0.000001,0.0000161
153.5,1774,447,3.25,-0.000001,0.0000161
154,1774,448,3.26,-0.000001,0.000016
154.5,1774,450,3.28,-0.000001,0.000016
155,1774,451,3.29,-0.000001,0.000016
155.5,1774,453,3.3,-0.000001,0.000016
156,1774,454,3.32,-0.000001,0.000016
156.5,1774,456,3.33,-0.000001,0.000016
157,1774,457,3.34,-0.000001,0.000016
157.5,1774,459,3.36,-0.000001,0.0000159
158,1774,460,3.37,-0.000001,0.0000159
158.5,1774,462,3.38,-0.000001,0.0000159
159,1774,464,3.4,-0.000001,0.0000159
159.5,1774,465,3.41,-0.000001,0.0000159
160,1774,467,3.42,-0.000001,0.0000159
160.5,1774,468,3.43,-0.000001,0.0000159
161,1774,470,3.45,-0.000001,0.0000159
161.5,1774,471,3.46,-0.000001,0.0000158
162,1774,473,3.47,-0.000001,0.0000158
162.5,1774,474,3.49,-0.000001,0.0000158
163,1774,476,3.5,-0.000001,0.0000158
163.5,1774,477,3.51,-0.000001,0.0000158
164,1774,479,3.52,-0.000001,0.0000158
164.5,1774,480,3.54,-0.000001,0.0000158
165,1774,482,3.55,-0.000001,0.0000158
165.5,1774,483,3.56,-0.000001,0.0000157
166,1774,485,3.57,-0.000001,0.0000157
166.5,1774,486,3.59,-0.000001,0.0000157
167,1774,488,3.6,-0.000001,0.0000157
167.5,1774,489,3.61,-0.000001,0.0000157
168,1774,491,3.62,-0.000001,0.0000157
168.5,1774,493,3.64,-0.000001,0.0000157
169,1774,494,3.65,-0.000001,0.0000157
169.5,1774,496,3.66,-0.000001,0.0000156
170,1774,497,3.67,-0.000001,0.0000156
170.5,1774,499,3.68,-0.000001,0.0000156
171,1774,500,3.7,-0.000001,0.0000156
171.5,1774,502,3.71,-0.000001,0.0000156
172,1774,503,3.72,-0.000001,0.0000156
172.5,1774,505,3.73,-0.000001,0.0000156
173,1774,506,3.74,-0.000001,0.0000156
173.5,1774,508,3.75,-0.000001,0.0000155
174,1774,509,3.77,-0.000001,0.0000155
174.5,1774,511,3.78,-0.000001,0.0000155
175,1774,513,3.79,-0.000001,0.0000155
175.5,1774,514,3.8,-0.000001,0.0000155
176,1774,516,3.81,-0.000001,0.0000155
176.5,1774,517,3.82,-0.000001,0.0000155
177,1774,519,3.83,-0.000001,0.0000154
177.5,1774,520,3.85,-0.000001,0.0000154
178,1774,522,3.86,-0.000001,0.0000154
178.5,1774,523,3.87,-0.000001,0.0000154
179,1774,525,3.88,-0.000001,0.0000154
179.5,1774,527,3.89,-0.000001,0.0000154
180,1774,528,3.9,-0.000001,0.0000154
180.5,1774,530,3.91,-0.000001,0.0000154
181,1774,531,3.92,-0.000001,0.0000153
181.5,1774,533,3.93,-0.000001,0.0000153
182,1774,534,3.94,-0.000001,0.0000153
182.5,1774,536,3.95,-0.000001,0.0000153
183,1774,537,3.97,-0.000001,0.0000153
183.5,1774,539,3.98,-0.000001,0.0000153
184,1774,541,3.99,-0.000001,0.0000153
184.5,1774,542,4,-0.000001,0.0000153
185,1774,544,4.01,-0.000001,0.0000152
185.5,1774,545,4.02,-0.000001,0.0000152
186,1774,547,4.03,-0.000001,0.0000152
186.5,1774,548,4.04,-0.000001,0.0000152
187,1774,550,4.05,-0.000001,0.0000152
187.5,1774,552,4.06,-0.000001,0.0000152
188,1774,553,4.07,-0.000001,0.0000152
188.5,1774,555,4.08,-0.000001,0.0000152
189,1774,556,4.09,-0.000001,0.0000151
189.5,1774,558,4.1,-0.000001,0.0000151
190,1774,560,4.11,-0.000001,0.0000151
190.5,1774,561,4.12,-0.000001,0.0000151
191,1774,563,4.13,-0.000001,0.0000151
191.5,1774,564,4.14,-0.000001,0.0000151
192,1774,566,4.15,-0.000001,0.0000151
192.5,1774,568,4.16,-0.000001,0.0000151
193,1774,569,4.17,-0.000001,0.000015
193.5,1774,571,4.18,-0.000001,0.000015
194,1774,572,4.19,-0.000001,0.000015
194.5,1774,574,4.2,-0.000001,0.000015
195,1774,576,4.21,-0.000001,0.000015
195.5,1774,577,4.22,-0.000001,0.000015
196,1774,579,4.23,-0.000001,0.000015
196.5,1774,581,4.24,-0.000001,0.0000149
197,1774,582,4.24,-0.000001,0.0000149
197.5,1774,584,4.25,-0.000001,0.0000149
198,1774,585,4.26,-0.000001,0.0000149
198.5,1774,587,4.27,-0.000001,0.0000149
199,1774,589,4.28,-0.000001,0.0000149
199.5,1774,590,4.29,-0.000001,0.0000149
200,1774,592,4.3,-0.000001,0.0000149
200.5,1774,594,4.31,-0.000001,0.0000148
201,1774,596,4.32,-0.000001,0.0000148
201.5,1774,597,4.33,-0.000001,0.0000148
202,1774,599,4.34,-0.000001,0.0000148
202.5,1774,601,4.35,-0.000001,0.0000148
203,1774,603,4.36,-0.000001,0.0000148
203.5,1774,605,4.37,-0.000001,0.0000148
204,1774,607,4.38,-0.000001,0.0000148
204.5,1774,608,4.39,-0.000001,0.0000147
205,1774,610,4.4,-0.000001,0.0000147
205.5,1774,612,4.41,-0.000001,0.0000147
206,1774,614,4.42,-0.000001,0.0000147
206.5,1774,616,4.43,-0.000001,0.0000147
207,1774,618,4.44,-0.000001,0.0000147
207.5,1774,620,4.45,-0.000001,0.0000147
208,1774,621,4.46,-0.000001,0.0000147
208.5,1774,623,4.46,-0.000001,0.0000146
209,1774,625,4.47,-0.000001,0.0000146
209.5,1774,627,4.48,-0.000001,0.0000146
210,1774,629,4.49,-0.000001,0.0000146
210.5,1774,631,4.5,-0.000001,0.0000146
211,1774,633,4.51,-0.000001,0.0000146
211.5,1774,634,4.52,-0.000001,0.0000146
212,1774,636,4.53,-0.000001,0.0000146
212.5,1774,638,4.54,-0.000001,0.0000145
213,1774,640,4.55,-0.000001,0.0000145
213.5,1774,642,4.55,-0.000001,0.0000145
214,1774,644,4.56,-0.000001,0.0000145
214.5,1774,646,4.57,-0.000001,0.0000145
215,1774,647,4.58,-0.000001,0.0000145
215.5,1774,649,4.59,-0.000001,0.0000145
216,1774,651,4.6,-0.000001,0.0000145
216.5,1774,653,4.61,-0.000001,0.0000144
217,1774,655,4.61,-0.000001,0.0000144
217.5,1774,657,4.62,-0.000001,0.0000144
218,1774,659,4.63,-0.000001,0.0000144
218.5,1774,661,4.64,-0.000001,0.0000144
219,1774,662,4.65,-0.000001,0.0000144
219.5,1774,664,4.65,-0.000001,0.0000144
220,1774,666,4.66,-0.000001,0.0000143
220.5,1774,668,4.67,-0.000001,0.0000143
221,1774,670,4.68,-0.000001,0.0000143
221.5,1774,672,4.69,-0.000001,0.0000143
222,1774,674,4.69,-0.000001,0.0000143
222.5,1774,676,4.7,-0.000001,0.0000143
223,1774,678,4.71,-0.000001,0.0000143
223.5,1774,679,4.72,-0.000001,0.0000143
224,1774,681,4.72,-0.000001,0.0000142
224.5,1774,683,4.73,-0.000001,0.0000142
225,1774,685,4.74,-0.000001,0.0000142
225.5,1774,687,4.75,-0.000001,0.0000142
226,1774,689,4.75,-0.000001,0.0000142
226.5,1774,691,4.76,-0.000001,0.0000142
227,1774,693,4.77,-0.000001,0.0000142
227.5,1774,694,4.77,-0.000001,0.0000142
228,1774,696,4.78,-0.000001,0.0000141
228.5,1774,698,4.79,-0.000001,0.0000141
229,1774,700,4.79,-0.000001,0.0000141
229.5,1774,702,4.8,-0.000001,0.0000141
230,1774,704,4.81,-0.000001,0.0000141
230.5,1774,706,4.81,-0.000001,0.0000141
231,1774,707,4.82,-0.000001,0.0000141
231.5,1774,709,4.83,-0.000001,0.0000141
232,1774,711,4.83,-0.000001,0.000014
232.5,1774,713,4.84,-0.000001,0.000014
233,1774,715,4.84,-0.000001,0.000014
233.5,1774,717,4.85,-0.000001,0.000014
234,1774,719,4.86,-0.000001,0.000014
234.5,1774,721,4.86,-0.000001,0.000014
235,1774,722,4.87,-0.000001,0.000014
235.5,1774,724,4.87,-0.000001,0.000014
236,1774,726,4.88,-0.000001,0.0000139
236.5,1774,728,4.88,-0.000001,0.0000139
237,1774,730,4.89,-0.000001,0.0000139
237.5,1774,732,4.9,-0.000001,0.0000139
238,1774,733,4.9,-0.000001,0.0000139
238.5,1774,735,4.91,-0.000001,0.0000139
239,1774,737,4.91,-0.000001,0.0000139
239.5,1774,739,4.92,-0.000001,0.0000138
240,1774,741,4.92,-0.000001,0.0000138
240.5,1774,743,4.93,-0.000001,0.0000138
241,1774,745,4.93,-0.000001,0.0000138
241.5,1774,746,4.93,-0.000001,0.0000138
242,1774,748,4.94,-0.000001,0.0000138
242.5,1774,750,4.94,-0.000001,0.0000138
243,1774,752,4.95,-0.000001,0.0000138
243.5,1774,754,4.95,-0.000001,0.0000137
244,1774,755,4.96,-0.000001,0.0000137
244.5,1774,757,4.96,-0.000001,0.0000137
245,1774,759,4.96,-0.000001,0.0000137
245.5,1774,761,4.97,-0.000001,0.0000137
246,1774,763,4.97,-0.000001,0.0000137
246.5,1774,764,4.98,-0.000001,0.0000137
247,1774,766,4.98,-0.000001,0.0000137
247.5,1774,768,4.98,-0.000001,0.0000136
248,1774,770,4.99,-0.000001,0.0000136
248.5,1774,772,4.99,-0.000001,0.0000136
249,1774,773,4.99,-0.000001,0.0000136
249.5,1774,775,5,-0.000001,0.0000136
250,1774,777,5,-0.000001,0.0000136
250.5,1774,779,5,-0.000001,0.0000136
251,1774,780,5,-0.000001,0.0000136
251.5,1774,782,5,-0.000001,0.0000135
252,1774,783,5.01,-0.000001,0.0000135
252.5,1774,785,5.01,-0.000001,0.0000135
253,1774,786,5.01,-0.000001,0.0000135
253.5,1774,788,5.01,-0.000001,0.0000135
254,1774,789,5.01,-0.000001,0.0000135
254.5,1774,791,5.01,-0.000001,0.0000135
255,1774,793,5.01,-0.000001,0.0000135
255.5,1774,794,5.02,-0.000001,0.0000134
256,1774,796,5.02,-0.000001,0.0000134
256.5,1774,797,5.02,-0.000001,0.0000134
257,1774,799,5.02,-0.000001,0.0000134
257.5,1774,800,5.02,-0.000001,0.0000134
258,1774,802,5.02,-0.000001,0.0000134
258.5,1774,804,5.02,-0.000001,0.0000134
259,1774,805,5.02,-0.000001,0.0000133
259.5,1774,807,5.02,-0.000001,0.0000133
260,1774,808,5.02,-0.000001,0.0000133
260.5,1774,810,5.02,-0.000001,0.0000133
261,1774,812,5.02,-0.000001,0.0000133
261.5,1774,813,5.02,-0.000001,0.0000133
262,1774,815,5.03,-0.000001,0.0000133
262.5,1774,817,5.03,-0.000001,0.0000133
263,1774,818,5.03,-0.000001,0.0000132
263.5,1774,820,5.03,-0.000001,0.0000132
264,1774,822,5.03,-0.000001,0.0000132
264.5,1774,823,5.03,-0.000001,0.0000132
265,1774,825,5.03,-0.000001,0.0000132
265.5,1774,827,5.03,-0.000001,0.0000132
266,1774,828,5.03,-0.000001,0.0000132
266.5,1774,830,5.03,-0.000001,0.0000132
267,1774,832,5.03,-0.000001,0.0000131
267.5,1774,834,5.03,-0.000001,0.0000131
268,1774,835,5.03,-0.000001,0.0000131
268.5,1774,837,5.03,-0.000001,0.0000131
269,1774,839,5.03,-0.000001,0.0000131
269.5,1774,841,5.03,-0.000001,0.0000131
270,1774,843,5.03,-0.000001,0.0000131
270.5,1774,844,5.03,-0.000001,0.0000131
271,1774,846,5.03,-0.000001,0.000013
271.5,1774,848,5.03,-0.000001,0.000013
272,1774,850,5.03,-0.000001,0.000013
272.5,1774,852,5.03,-0.000001,0.000013
273,1774,854,5.03,-0.000001,0.000013
273.5,1774,855,5.03,-0.000001,0.000013
274,1774,857,5.03,-0.000001,0.000013
274.5,1774,859,5.03,-0.000001,0.000013
275,1774,861,5.03,-0.000001,0.0000129
275.5,1774,863,5.03,-0.000001,0.0000129
276,1774,865,5.03,-0.000001,0.0000129
276.5,1774,867,5.03,-0.000001,0.0000129
277,1774,869,5.03,-0.000001,0.0000129
277.5,1774,871,5.03,-0.000001,0.0000129
278,1774,873,5.03,-0.000001,0.0000129
278.5,1774,875,5.03,-0.000001,0.0000128
279,1774,877,5.03,-0.000001,0.0000128
279.5,1774,879,5.03,-0.000001,0.0000128
280,1774,881,5.03,-0.000001,0.0000128
280.5,1774,883,5.03,-0.000001,0.0000128
281,1774,885,5.03,-0.000001,0.0000128
281.5,1774,888,5.03,-0.000001,0.0000128
282,1774,890,5.03,-0.000001,0.0000128
282.5,1774,892,5.03,-0.000001,0.0000127
283,1774,894,5.03,-0.000001,0.0000127
283.5,1774,896,5.03,-0.000001,0.0000127
284,1774,898,5.03,-0.000001,0.0000127
284.5,1774,901,5.03,-0.000001,0.0000127
285,1774,903,5.03,-0.000001,0.0000127
285.5,1774,905,5.03,-0.000001,0.0000127
286,1774,907,5.03,-0.000001,0.0000127
286.5,1774,910,5.03,-0.000001,0.0000126
287,1774,912,5.03,-0.000001,0.0000126
287.5,1774,914,5.03,-0.000001,0.0000126
288,1774,917,5.03,-0.000001,0.0000126
288.5,1774,919,5.03,-0.000001,0.0000126
289,1774,922,5.03,-0.000001,0.0000126
289.5,1774,924,5.03,-0.000001,0.0000126
290,1774,926,5.03,-0.000001,0.0000126
290.5,1774,929,5.03,-0.000001,0.0000125
291,1774,931,5.03,-0.000001,0.0000125
291.5,1774,934,5.03,-0.000001,0.0000125
292,1774,936,5.04,-0.000001,0.0000125
292.5,1774,939,5.04,-0.000001,0.0000125
293,1774,942,5.04,-0.000001,0.0000125
293.5,1774,944,5.04,-0.000001,0.0000125
294,1774,947,5.04,-0.000001,0.0000124
294.5,1774,949,5.04,-0.000001,0.0000124
295,1774,952,5.04,-0.000001,0.0000124
295.5,1774,955,5.04,-0.000001,0.0000124
296,1774,957,5.04,-0.000001,0.0000124
296.5,1774,960,5.04,-0.000001,0.0000124
297,1774,963,5.04,-0.000001,0.0000124
297.5,1774,966,5.04,-0.000001,0.0000124
298,1774,969,5.05,-0.000001,0.0000123
298.5,1774,971,5.05,-0.000001,0.0000123
299,1774,974,5.05,-0.000001,0.0000123
299.5,1774,977,5.05,-0.000001,0.0000123
300,1774,980,5.05,-0.000001,0.0000123