File: SolidProps/lib/CARBON_FIBER_NORMAL_TO_FIBER.csv
T/K,rho/(kg/m3),cp/(J/(kg.K)),K/(W/(m.K)),alpha_thermal/(1/K),resistivity/(ohm.m)
1,1774,0.0184,0.005,0,0
1.5,1774,0.0863,0.00713,0,0
2,1774,0.24,0.009,0,0
2.5,1774,0.474,0.0106,0,0
3,1774,0.783,0.0121,0,0
3.5,1774,1.16,0.0134,0,0
4,1774,1.61,0.0146,0,0
4.5,1774,2.11,0.0156,0,0
5,1774,2.61,0.0171,0,0
5.5,1774,3.18,0.0184,0,0
6,1774,3.79,0.0197,0,0
6.5,1774,4.45,0.021,0,0
7,1774,5.14,0.0223,0,0
7.5,1774,5.87,0.0235,0,0
8,1774,6.63,0.0248,0,0
8.5,1774,7.43,0.0261,0,0
9,1774,8.26,0.0274,0,0
9.5,1774,9.16,0.0285,1.47346e-07,0
10,1774,10,0.03,3.91251e-07,0
10.5,1774,10.9,0.0315,6.35205e-07,0
11,1774,11.7,0.033,8.79193e-07,0
11.5,1774,12.6,0.0345,1.1232e-06,0
12,1774,13.6,0.0361,1.3672e-06,0
12.5,1774,14.5,0.0376,1.61118e-06,0
13,1774,15.5,0.0392,1.85512e-06,0
13.5,1774,16.4,0.0408,2.09901e-06,0
14,1774,17.4,0.0424,2.34283e-06,0
14.5,1774,18.4,0.044,2.58657e-06,0
15,1774,19.4,0.0456,2.8302e-06,0
15.5,1774,20.5,0.0473,3.07371e-06,0
16,1774,21.5,0.0489,3.31708e-06,0
16.5,1774,22.5,0.0506,3.56031e-06,0
17,1774,23.6,0.0522,3.80336e-06,0
17.5,1774,24.6,0.0538,4.04623e-06,0
18,1774,25.7,0.0555,4.28891e-06,0
18.5,1774,26.8,0.0571,4.53137e-06,0
19,1774,27.8,0.0588,4.7736e-06,0
19.5,1774,29,0.0605,5.01559e-06,0
20,1774,30,0.062,5.25732e-06,0
20.5,1774,31,0.0635,5.49877e-06,0
21,1774,32,0.065,5.73994e-06,0
21.5,1774,33,0.0664,5.9808e-06,0
22,1774,34,0.0679,6.22135e-06,0
22.5,1774,35,0.0693,6.46156e-06,0
23,1774,36,0.0708,6.70143e-06,0
23.5,1774,37.1,0.0722,6.94094e-06,0
24,1774,38.1,0.0736,7.18008e-06,0
24.5,1774,39.1,0.075,7.41883e-06,0
25,1774,40.1,0.0764,7.65718e-06,0
25.5,1774,41.1,0.0778,7.89512e-06,0
26,1774,42.2,0.0792,8.13263e-06,0
26.5,1774,43.2,0.0806,8.36971e-06,0
27,1774,44.3,0.082,8.60633e-06,0
27.5,1774,45.3,0.0833,8.84249e-06,0
28,1774,46.4,0.0847,9.07817e-06,0
28.5,1774,47.4,0.086,9.31336e-06,0
29,1774,48.5,0.0874,9.54805e-06,0
29.5,1774,49.6,0.0887,9.78223e-06,0
30,1774,50.6,0.09,1.00159e-05,0
30.5,1774,51.6,0.0913,1.0249e-05,0
31,1774,52.7,0.0926,1.04816e-05,0
31.5,1774,53.7,0.0939,1.07136e-05,0
32,1774,54.8,0.0951,1.0945e-05,0
32.5,1774,55.9,0.0964,1.11758e-05,0
33,1774,56.9,0.0977,1.14061e-05,0
33.5,1774,58,0.0989,1.16357e-05,0
34,1774,59.1,0.1,1.18648e-05,0
34.5,1774,60.2,0.101,1.20932e-05,0
35,1774,61.4,0.103,1.23209e-05,0
35.5,1774,62.5,0.104,1.25481e-05,0
36,1774,63.7,0.105,1.27745e-05,0
36.5,1774,64.8,0.106,1.30003e-05,0
37,1774,66,0.108,1.32254e-05,0
37.5,1774,67.2,0.109,1.34499e-05,0
38,1774,68.4,0.11,1.36736e-05,0
38.5,1774,69.7,0.111,1.38966e-05,0
39,1774,70.9,0.113,1.41189e-05,0
39.5,1774,72.1,0.114,1.43405e-05,0
40,1774,73.5,0.115,1.45613e-05,0
40.5,1774,74.9,0.116,1.47814e-05,0
41,1774,76.3,0.117,1.50008e-05,0
41.5,1774,77.8,0.119,1.52193e-05,0
42,1774,79.3,0.12,1.54371e-05,0
42.5,1774,80.8,0.121,1.56542e-05,0
43,1774,82.3,0.122,1.58704e-05,0
43.5,1774,83.8,0.123,1.60859e-05,0
44,1774,85.4,0.124,1.63005e-05,0
44.5,1774,86.9,0.126,1.65143e-05,0
45,1774,88.5,0.127,1.67273e-05,0
45.5,1774,90.1,0.128,1.69395e-05,0
46,1774,91.7,0.129,1.71508e-05,0
46.5,1774,93.3,0.131,1.73613e-05,0
47,1774,95,0.132,1.7571e-05,0
47.5,1774,96.6,0.133,1.77798e-05,0
48,1774,98.3,0.135,1.79877e-05,0
48.5,1774,99.9,0.136,1.81947e-05,0
49,1774,102,0.137,1.84009e-05,0
49.5,1774,103,0.138,1.86062e-05,0
50,1774,105,0.14,1.88105e-05,0
50.5,1774,107,0.142,1.9014e-05,0
51,1774,108,0.143,1.92166e-05,0
51.5,1774,110,0.145,1.94183e-05,0
52,1774,112,0.147,1.9619e-05,0
52.5,1774,114,0.149,1.98188e-05,0
53,1774,115,0.15,2.00177e-05,0
53.5,1774,117,0.152,2.02156e-05,0
54,1774,119,0.154,2.04126e-05,0
54.5,1774,121,0.156,2.06087e-05,0
55,1774,122,0.158,2.08038e-05,0
55.5,1774,124,0.159,2.09979e-05,0
56,1774,126,0.161,2.11911e-05,0
56.5,1774,128,0.163,2.13833e-05,0
57,1774,129,0.165,2.15745e-05,0
57.5,1774,131,0.166,2.17648e-05,0
58,1774,133,0.168,2.1954e-05,0
58.5,1774,135,0.17,2.21423e-05,0
59,1774,136,0.172,2.23296e-05,0
59.5,1774,138,0.174,2.25159e-05,0
60,1774,140,0.175,2.27011e-05,0
60.5,1774,142,0.176,2.28854e-05,0
61,1774,143,0.178,2.30686e-05,0
61.5,1774,145,0.179,2.32509e-05,0
62,1774,147,0.18,2.34321e-05,0
62.5,1774,148,0.181,2.36123e-05,0
63,1774,150,0.182,2.37914e-05,0
63.5,1774,151,0.184,2.39695e-05,0
64,1774,153,0.185,2.41466e-05,0
64.5,1774,155,0.186,2.43227e-05,0
65,1774,156,0.187,2.44977e-05,0
65.5,1774,158,0.188,2.46716e-05,0
66,1774,160,0.19,2.48445e-05,0
66.5,1774,161,0.191,2.50164e-05,0
67,1774,163,0.192,2.51872e-05,0
67.5,1774,165,0.193,2.5357e-05,0
68,1774,166,0.195,2.55256e-05,0
68.5,1774,168,0.196,2.56933e-05,0
69,1774,170,0.197,2.58598e-05,0
69.5,1774,171,0.198,2.60253e-05,0
70,1774,173,0.2,2.61897e-05,0
70.5,1774,175,0.202,2.6353e-05,0
71,1774,177,0.203,2.65153e-05,0
71.5,1774,179,0.205,2.66765e-05,0
72,1774,181,0.207,2.68366e-05,0
72.5,1774,183,0.209,2.69956e-05,0
73,1774,185,0.21,2.71535e-05,0
73.5,1774,186,0.212,2.73104e-05,0
74,1774,188,0.214,2.74662e-05,0
74.5,1774,190,0.216,2.76208e-05,0
75,1774,192,0.218,2.77744e-05,0
75.5,1774,194,0.22,2.79269e-05,0
76,1774,196,0.222,2.80783e-05,0
76.5,1774,198,0.224,2.82286e-05,0
77,1774,200,0.226,2.83779e-05,0
77.5,1774,202,0.229,2.8526e-05,0
78,1774,204,0.231,2.8673e-05,0
78.5,1774,206,0.233,2.88189e-05,0
79,1774,207,0.235,2.89638e-05,0
79.5,1774,209,0.237,2.91075e-05,0
80,1774,211,0.24,2.92501e-05,0
80.5,1774,212,0.243,2.93916e-05,0
81,1774,214,0.246,2.95321e-05,0
81.5,1774,215,0.249,2.96714e-05,0
82,1774,217,0.251,2.98096e-05,0
82.5,1774,218,0.254,2.99468e-05,0
83,1774,220,0.257,3.00828e-05,0
83.5,1774,221,0.26,3.02177e-05,0
84,1774,222,0.263,3.03515e-05,0
84.5,1774,224,0.266,3.04843e-05,0
85,1774,225,0.269,3.06159e-05,0
85.5,1774,227,0.272,3.07464e-05,0
86,1774,228,0.274,3.08758e-05,0
86.5,1774,229,0.277,3.10042e-05,0
87,1774,231,0.28,3.11314e-05,0
87.5,1774,232,0.283,3.12575e-05,0
88,1774,233,0.285,3.13826e-05,0
88.5,1774,235,0.288,3.15065e-05,0
89,1774,236,0.29,3.16293e-05,0
89.5,1774,237,0.293,3.17511e-05,0
90,1774,239,0.295,3.18717e-05,0
90.5,1774,241,0.297,3.19913e-05,0
91,1774,242,0.298,3.21098e-05,0
91.5,1774,244,0.3,3.22272e-05,0
92,1774,246,0.301,3.23435e-05,0
92.5,1774,247,0.303,3.24587e-05,0
93,1774,249,0.304,3.25728e-05,0
93.5,1774,251,0.305,3.26859e-05,0
94,1774,252,0.306,3.27978e-05,0
94.5,1774,254,0.307,3.29087e-05,0
95,1774,256,0.308,3.30185e-05,0
95.5,1774,258,0.309,3.31272e-05,0
96,1774,259,0.31,3.32349e-05,0
96.5,1774,261,0.311,3.33415e-05,0
97,1774,263,0.312,3.3447e-05,0
97.5,1774,265,0.312,3.35514e-05,0
98,1774,267,0.313,3.36548e-05,0
98.5,1774,268,0.314,3.37571e-05,0
99,1774,270,0.314,3.38584e-05,0
99.5,1774,272,0.314,3.39586e-05,0
100,1774,274,0.315,3.40577e-05,0
100.5,1774,276,0.316,3.41558e-05,0
101,1774,277,0.318,3.42529e-05,0
101.5,1774,279,0.319,3.43488e-05,0
102,1774,281,0.32,3.44438e-05,0
102.5,1774,283,0.322,3.45377e-05,0
103,1774,284,0.323,3.46305e-05,0
103.5,1774,286,0.324,3.47224e-05,0
104,1774,288,0.326,3.48132e-05,0
104.5,1774,289,0.327,3.49029e-05,0
105,1774,291,0.329,3.49917e-05,0
105.5,1774,293,0.33,3.50794e-05,0
106,1774,294,0.332,3.51661e-05,0
106.5,1774,296,0.333,3.52517e-05,0
107,1774,298,0.335,3.53364e-05,0
107.5,1774,300,0.336,3.542e-05,0
108,1774,301,0.338,3.55027e-05,0
108.5,1774,303,0.339,3.55843e-05,0
109,1774,305,0.341,3.56649e-05,0
109.5,1774,306,0.342,3.57446e-05,0
110,1774,308,0.344,3.58232e-05,0
110.5,1774,310,0.346,3.59009e-05,0
111,1774,311,0.347,3.59775e-05,0
111.5,1774,313,0.349,3.60532e-05,0
112,1774,315,0.351,3.61279e-05,0
112.5,1774,316,0.353,3.62016e-05,0
113,1774,318,0.354,3.62744e-05,0
113.5,1774,320,0.356,3.63462e-05,0
114,1774,321,0.358,3.6417e-05,0
114.5,1774,323,0.359,3.64869e-05,0
115,1774,325,0.361,3.65558e-05,0
115.5,1774,326,0.363,3.66238e-05,0
116,1774,328,0.365,3.66909e-05,0
116.5,1774,329,0.367,3.67569e-05,0
117,1774,331,0.369,3.68221e-05,0
117.5,1774,333,0.37,3.68863e-05,0
118,1774,334,0.372,3.69496e-05,0
118.5,1774,336,0.374,3.7012e-05,0
119,1774,338,0.376,3.70734e-05,0
119.5,1774,339,0.378,3.7134e-05,0
120,1774,341,0.38,3.71936e-05,0
120.5,1774,343,0.382,3.72523e-05,0
121,1774,344,0.384,3.73102e-05,0
121.5,1774,346,0.385,3.73671e-05,0
122,1774,347,0.387,3.74231e-05,0
122.5,1774,349,0.389,3.74783e-05,0
123,1774,351,0.391,3.75326e-05,0
123.5,1774,352,0.393,3.7586e-05,0
124,1774,354,0.395,3.76385e-05,0
124.5,1774,355,0.397,3.76902e-05,0
125,1774,357,0.399,3.7741e-05,0
125.5,1774,359,0.401,3.7791e-05,0
126,1774,360,0.403,3.78401e-05,0
126.5,1774,362,0.405,3.78883e-05,0
127,1774,364,0.407,3.79357e-05,0
127.5,1774,365,0.409,3.79823e-05,0
128,1774,367,0.411,3.80281e-05,0
128.5,1774,368,0.413,3.8073e-05,0
129,1774,370,0.415,3.81171e-05,0
129.5,1774,372,0.417,3.81604e-05,0
130,1774,373,0.419,3.82029e-05,0
130.5,1774,375,0.421,3.82446e-05,0
131,1774,376,0.423,3.82855e-05,0
131.5,1774,378,0.425,3.83256e-05,0
132,1774,379,0.427,3.83649e-05,0
132.5,1774,381,0.43,3.84035e-05,0
133,1774,383,0.432,3.84413e-05,0
133.5,1774,384,0.434,3.84783e-05,0
134,1774,386,0.436,3.85145e-05,0
134.5,1774,387,0.438,3.855e-05,0
135,1774,389,0.44,3.85847e-05,0
135.5,1774,391,0.442,3.86187e-05,0
136,1774,392,0.444,3.86519e-05,0
136.5,1774,394,0.446,3.86844e-05,0
137,1774,395,0.448,3.87162e-05,0
137.5,1774,397,0.45,3.87473e-05,0
138,1774,398,0.452,3.87776e-05,0
138.5,1774,400,0.454,3.88072e-05,0
139,1774,402,0.456,3.88362e-05,0
139.5,1774,403,0.458,3.88644e-05,0
140,1774,405,0.46,3.88919e-05,0
140.5,1774,406,0.462,3.89188e-05,0
141,1774,408,0.464,3.89449e-05,0
141.5,1774,409,0.466,3.89704e-05,0
142,1774,411,0.468,3.89952e-05,0
142.5,1774,413,0.47,3.90194e-05,0
143,1774,414,0.472,3.90429e-05,0
143.5,1774,416,0.474,3.90657e-05,0
144,1774,417,0.476,3.90879e-05,0
144.5,1774,419,0.478,3.91095e-05,0
145,1774,420,0.48,3.91304e-05,0
145.5,1774,422,0.482,3.91508e-05,0
146,1774,424,0.484,3.91704e-05,0
146.5,1774,425,0.486,3.91895e-05,0
147,1774,427,0.488,3.9208e-05,0
147.5,1774,428,0.49,3.92259e-05,0
148,1774,430,0.492,3.92431e-05,0
148.5,1774,431,0.494,3.92598e-05,0
149,1774,433,0.496,3.92759e-05,0
149.5,1774,434,0.499,3.92914e-05,0
150,1774,436,0.5,3.93064e-05,0
150.5,1774,438,0.501,3.93208e-05,0
151,1774,439,0.503,3.93346e-05,0
151.5,1774,441,0.504,3.93479e-05,0
152,1774,442,0.505,3.93606e-05,0
152.5,1774,444,0.507,3.93728e-05,0
153,1774,445,0.508,3.93845e-05,0
153.5,1774,447,0.509,3.93956e-05,0
154,1774,448,0.51,3.94062e-05,0
154.5,1774,450,0.512,3.94163e-05,0
155,1774,451,0.513,3.94259e-05,0
155.5,1774,453,0.514,3.9435e-05,0
156,1774,454,0.516,3.94436e-05,0
156.5,1774,456,0.517,3.94517e-05,0
157,1774,457,0.518,3.94594e-05,0
157.5,1774,459,0.519,3.94665e-05,0
158,1774,460,0.52,3.94732e-05,0
158.5,1774,462,0.522,3.94795e-05,0
159,1774,464,0.523,3.94852e-05,0
159.5,1774,465,0.524,3.94906e-05,0
160,1774,467,0.525,3.94954e-05,0
160.5,1774,468,0.526,3.94999e-05,0
161,1774,470,0.527,3.95039e-05,0
161.5,1774,471,0.529,3.95075e-05,0
162,1774,473,0.53,3.95107e-05,0
162.5,1774,474,0.531,3.95134e-05,0
163,1774,476,0.532,3.95158e-05,0
163.5,1774,477,0.533,3.95177e-05,0
164,1774,479,0.534,3.95193e-05,0
164.5,1774,480,0.535,3.95205e-05,0
165,1774,482,0.536,3.95213e-05,0
165.5,1774,483,0.537,3.95217e-05,0
166,1774,485,0.538,3.95218e-05,0
166.5,1774,486,0.539,3.95215e-05,0
167,1774,488,0.541,3.95208e-05,0
167.5,1774,489,0.542,3.95198e-05,0
168,1774,491,0.543,3.95184e-05,0
168.5,1774,493,0.544,3.95168e-05,0
169,1774,494,0.545,3.95148e-05,0
169.5,1774,496,0.546,3.95124e-05,0
170,1774,497,0.547,3.95098e-05,0
170.5,1774,499,0.548,3.95068e-05,0
171,1774,500,0.549,3.95036e-05,0
171.5,1774,502,0.549,3.95e-05,0
172,1774,503,0.55,3.94961e-05,0
172.5,1774,505,0.551,3.9492e-05,0
173,1774,506,0.552,3.94876e-05,0
173.5,1774,508,0.553,3.94829e-05,0
174,1774,509,0.554,3.9478e-05,0
174.5,1774,511,0.555,3.94727e-05,0
175,1774,513,0.556,3.94673e-05,0
175.5,1774,514,0.557,3.94673e-05,0
176,1774,516,0.558,3.94673e-05,0
176.5,1774,517,0.559,3.94673e-05,0
177,1774,519,0.559,3.94673e-05,0
177.5,1774,520,0.56,3.94673e-05,0
178,1774,522,0.561,3.94673e-05,0
178.5,1774,523,0.562,3.94673e-05,0
179,1774,525,0.563,3.94673e-05,0
179.5,1774,527,0.564,3.94673e-05,0
180,1774,528,0.564,3.94673e-05,0
180.5,1774,530,0.565,3.94673e-05,0
181,1774,531,0.566,3.94673e-05,0
181.5,1774,533,0.567,3.94673e-05,0
182,1774,534,0.568,3.94673e-05,0
182.5,1774,536,0.568,3.94673e-05,0
183,1774,537,0.569,3.94673e-05,0
183.5,1774,539,0.57,3.94673e-05,0
184,1774,541,0.571,3.94673e-05,0
184.5,1774,542,0.571,3.94673e-05,0
185,1774,544,0.572,3.94673e-05,0
185.5,1774,545,0.573,3.94673e-05,0
186,1774,547,0.574,3.94673e-05,0
186.5,1774,548,0.574,3.94673e-05,0
187,1774,550,0.575,3.94673e-05,0
187.5,1774,552,0.576,3.94673e-05,0
188,1774,553,0.576,3.94673e-05,0
188.5,1774,555,0.577,3.94673e-05,0
189,1774,556,0.578,3.94673e-05,0
189.5,1774,558,0.578,3.94673e-05,0
190,1774,560,0.579,3.94673e-05,0
190.5,1774,561,0.58,3.94673e-05,0
191,1774,563,0.58,3.94673e-05,0
191.5,1774,564,0.581,3.94673e-05,0
192,1774,566,0.581,3.94673e-05,0
192.5,1774,568,0.582,3.94673e-05,0
193,1774,569,0.583,3.94673e-05,0
193.5,1774,571,0.583,3.94673e-05,0
194,1774,572,0.584,3.94673e-05,0
194.5,1774,574,0.584,3.94673e-05,0
195,1774,576,0.585,3.94673e-05,0
195.5,1774,577,0.585,3.94673e-05,0
196,1774,579,0.586,3.94673e-05,0
196.5,1774,581,0.586,3.94673e-05,0
197,1774,582,0.587,3.94673e-05,0
197.5,1774,584,0.588,3.94673e-05,0
198,1774,585,0.588,3.94673e-05,0
198.5,1774,587,0.589,3.94673e-05,0
199,1774,589,0.589,3.94673e-05,0
199.5,1774,590,0.59,3.94673e-05,0
200,1774,592,0.59,3.94673e-05,0
200.5,1774,594,0.59,3.94673e-05,0
201,1774,596,0.59,3.94673e-05,0
201.5,1774,597,0.591,3.94673e-05,0
202,1774,599,0.591,3.94673e-05,0
202.5,1774,601,0.591,3.94673e-05,0
203,1774,603,0.591,3.94673e-05,0
203.5,1774,605,0.591,3.94673e-05,0
204,1774,607,0.591,3.94673e-05,0
204.5,1774,608,0.591,3.94673e-05,0
205,1774,610,0.591,3.94673e-05,0
205.5,1774,612,0.592,3.94673e-05,0
206,1774,614,0.592,3.94673e-05,0
206.5,1774,616,0.592,3.94673e-05,0
207,1774,618,0.592,3.94673e-05,0
207.5,1774,620,0.592,3.94673e-05,0
208,1774,621,0.592,3.94673e-05,0
208.5,1774,623,0.592,3.94673e-05,0
209,1774,625,0.592,3.94673e-05,0
209.5,1774,627,0.592,3.94673e-05,0
210,1774,629,0.592,3.94673e-05,0
210.5,1774,631,0.592,3.94673e-05,0
211,1774,633,0.592,3.94673e-05,0
211.5,1774,634,0.592,3.94673e-05,0
212,1774,636,0.593,3.94673e-05,0
212.5,1774,638,0.593,3.94673e-05,0
213,1774,640,0.593,3.94673e-05,0
213.5,1774,642,0.593,3.94673e-05,0
214,1774,644,0.593,3.94673e-05,0
214.5,1774,646,0.593,3.94673e-05,0
215,1774,647,0.593,3.94673e-05,0
215.5,1774,649,0.593,3.94673e-05,0
216,1774,651,0.593,3.94673e-05,0
216.5,1774,653,0.593,3.94673e-05,0
217,1774,655,0.593,3.94673e-05,0
217.5,1774,657,0.593,3.94673e-05,0
218,1774,659,0.593,3.94673e-05,0
218.5,1774,661,0.593,3.94673e-05,0
219,1774,662,0.593,3.94673e-05,0
219.5,1774,664,0.593,3.94673e-05,0
220,1774,666,0.593,3.94673e-05,0
220.5,1774,668,0.593,3.94673e-05,0
221,1774,670,0.593,3.94673e-05,0
221.5,1774,672,0.593,3.94673e-05,0
222,1774,674,0.593,3.94673e-05,0
222.5,1774,676,0.593,3.94673e-05,0
223,1774,678,0.593,3.94673e-05,0
223.5,1774,679,0.593,3.94673e-05,0
224,1774,681,0.593,3.94673e-05,0
224.5,1774,683,0.593,3.94673e-05,0
225,1774,685,0.593,3.94673e-05,0
225.5,1774,687,0.593,3.94673e-05,0
226,1774,689,0.593,3.94673e-05,0
226.5,1774,691,0.593,3.94673e-05,0
227,1774,693,0.593,3.94673e-05,0
227.5,1774,694,0.593,3.94673e-05,0
228,1774,696,0.593,3.94673e-05,0
228.5,1774,698,0.593,3.94673e-05,0
229,1774,700,0.593,3.94673e-05,0
229.5,1774,702,0.593,3.94673e-05,0
230,1774,704,0.593,3.94673e-05,0
230.5,1774,706,0.593,3.94673e-05,0
231,1774,707,0.594,3.94673e-05,0
231.5,1774,709,0.594,3.94673e-05,0
232,1774,711,0.594,3.94673e-05,0
232.5,1774,713,0.594,3.94673e-05,0
233,1774,715,0.594,3.94673e-05,0
233.5,1774,717,0.594,3.94673e-05,0
234,1774,719,0.594,3.94673e-05,0
234.5,1774,721,0.594,3.94673e-05,0
235,1774,722,0.594,3.94673e-05,0
235.5,1774,724,0.594,3.94673e-05,0
236,1774,726,0.594,3.94673e-05,0
236.5,1774,728,0.594,3.94673e-05,0
237,1774,730,0.595,3.94673e-05,0
237.5,1774,732,0.595,3.94673e-05,0
238,1774,733,0.595,3.94673e-05,0
238.5,1774,735,0.595,3.94673e-05,0
239,1774,737,0.595,3.94673e-05,0
239.5,1774,739,0.595,3.94673e-05,0
240,1774,741,0.595,3.94673e-05,0
240.5,1774,743,0.595,3.94673e-05,0
241,1774,745,0.596,3.94673e-05,0
241.5,1774,746,0.596,3.94673e-05,0
242,1774,748,0.596,3.94673e-05,0
242.5,1774,750,0.596,3.94673e-05,0
243,1774,752,0.596,3.94673e-05,0
243.5,1774,754,0.597,3.94673e-05,0
244,1774,755,0.597,3.94673e-05,0
244.5,1774,757,0.597,3.94673e-05,0
245,1774,759,0.597,3.94673e-05,0
245.5,1774,761,0.597,3.94673e-05,0
246,1774,763,0.598,3.94673e-05,0
246.5,1774,764,0.598,3.94673e-05,0
247,1774,766,0.598,3.94673e-05,0
247.5,1774,768,0.598,3.94673e-05,0
248,1774,770,0.599,3.94673e-05,0
248.5,1774,772,0.599,3.94673e-05,0
249,1774,773,0.599,3.94673e-05,0
249.5,1774,775,0.599,3.94673e-05,0
250,1774,777,0.6,3.94673e-05,0
250.5,1774,779,0.601,3.94673e-05,0
251,1774,780,0.601,3.94673e-05,0
251.5,1774,782,0.602,3.94673e-05,0
252,1774,783,0.603,3.94673e-05,0
252.5,1774,785,0.603,3.94673e-05,0
253,1774,786,0.604,3.94673e-05,0
253.5,1774,788,0.604,3.94673e-05,0
254,1774,789,0.605,3.94673e-05,0
254.5,1774,791,0.606,3.94673e-05,0
255,1774,793,0.606,3.94673e-05,0
255.5,1774,794,0.607,3.94673e-05,0
256,1774,796,0.608,3.94673e-05,0
256.5,1774,797,0.608,3.94673e-05,0
257,1774,799,0.609,3.94673e-05,0
257.5,1774,800,0.61,3.94673e-05,0
258,1774,802,0.61,3.94673e-05,0
258.5,1774,804,0.611,3.94673e-05,0
259,1774,805,0.612,3.94673e-05,0
259.5,1774,807,0.612,3.94673e-05,0
260,1774,808,0.613,3.94673e-05,0
260.5,1774,810,0.614,3.94673e-05,0
261,1774,812,0.614,3.94673e-05,0
261.5,1774,813,0.615,3.94673e-05,0
262,1774,815,0.616,3.94673e-05,0
262.5,1774,817,0.616,3.94673e-05,0
263,1774,818,0.617,3.94673e-05,0
263.5,1774,820,0.618,3.94673e-05,0
264,1774,822,0.618,3.94673e-05,0
264.5,1774,823,0.619,3.94673e-05,0
265,1774,825,0.62,3.94673e-05,0
265.5,1774,827,0.62,3.94673e-05,0
266,1774,828,0.621,3.94673e-05,0
266.5,1774,830,0.622,3.94673e-05,0
267,1774,832,0.622,3.94673e-05,0
267.5,1774,834,0.623,3.94673e-05,0
268,1774,835,0.624,3.94673e-05,0
268.5,1774,837,0.624,3.94673e-05,0
269,1774,839,0.625,3.94673e-05,0
269.5,1774,841,0.626,3.94673e-05,0
270,1774,843,0.626,3.94673e-05,0
270.5,1774,844,0.627,3.94673e-05,0
271,1774,846,0.628,3.94673e-05,0
271.5,1774,848,0.628,3.94673e-05,0
272,1774,850,0.629,3.94673e-05,0
272.5,1774,852,0.629,3.94673e-05,0
273,1774,854,0.63,3.94673e-05,0
273.5,1774,855,0.631,3.94673e-05,0
274,1774,857,0.631,3.94673e-05,0
274.5,1774,859,0.632,3.94673e-05,0
275,1774,861,0.632,3.94673e-05,0
275.5,1774,863,0.633,3.94673e-05,0
276,1774,865,0.634,3.94673e-05,0
276.5,1774,867,0.634,3.94673e-05,0
277,1774,869,0.635,3.94673e-05,0
277.5,1774,871,0.635,3.94673e-05,0
278,1774,873,0.636,3.94673e-05,0
278.5,1774,875,0.636,3.94673e-05,0
279,1774,877,0.637,3.94673e-05,0
279.5,1774,879,0.637,3.94673e-05,0
280,1774,881,0.638,3.94673e-05,0
280.5,1774,883,0.638,3.94673e-05,0
281,1774,885,0.639,3.94673e-05,0
281.5,1774,888,0.639,3.94673e-05,0
282,1774,890,0.64,3.94673e-05,0
282.5,1774,892,0.64,3.94673e-05,0
283,1774,894,0.641,3.94673e-05,0
283.5,1774,896,0.641,3.94673e-05,0
284,1774,898,0.642,3.94673e-05,0
284.5,1774,901,0.642,3.94673e-05,0
285,1774,903,0.643,3.94673e-05,0
285.5,1774,905,0.643,3.94673e-05,0
286,1774,907,0.643,3.94673e-05,0
286.5,1774,910,0.644,3.94673e-05,0
287,1774,912,0.644,3.94673e-05,0
287.5,1774,914,0.645,3.94673e-05,0
288,1774,917,0.645,3.94673e-05,0
288.5,1774,919,0.645,3.94673e-05,0
289,1774,922,0.646,3.94673e-05,0
289.5,1774,924,0.646,3.94673e-05,0
290,1774,926,0.646,3.94673e-05,0
290.5,1774,929,0.647,3.94673e-05,0
291,1774,931,0.647,3.94673e-05,0
291.5,1774,934,0.647,3.94673e-05,0
292,1774,936,0.647,3.94673e-05,0
292.5,1774,939,0.648,3.94673e-05,0
293,1774,942,0.648,3.94673e-05,0
293.5,1774,944,0.648,3.94673e-05,0
294,1774,947,0.648,3.94673e-05,0
294.5,1774,949,0.649,3.94673e-05,0
295,1774,952,0.649,3.94673e-05,0
295.5,1774,955,0.649,3.94673e-05,0
296,1774,957,0.649,3.94673e-05,0
296.5,1774,960,0.649,3.94673e-05,0
297,1774,963,0.649,3.94673e-05,0
297.5,1774,966,0.65,3.94673e-05,0
298,1774,969,0.65,3.94673e-05,0
298.5,1774,971,0.65,3.94673e-05,0
299,1774,974,0.65,3.94673e-05,0
299.5,1774,977,0.65,3.94673e-05,0
300,1774,980,0.65,3.94673e-05,0