File: SolidProps/lib/COPPER-NICKEL_90-10.csv
T/K,rho/(kg/m3),cp/(J/(kg.K)),K/(W/(m.K)),alpha_thermal/(1/K),resistivity/(ohm.m)
1,8940,0.126,0.28,0,0.00000014
1.5,8940,0.183,0.426,0,0.00000014
2,8940,0.243,0.565,0,0.00000014
2.5,8940,0.305,0.702,0,0.00000014
3,8940,0.371,0.84,0,0.00000014
3.5,8940,0.441,0.986,0,0.00000014
4,8940,0.515,1.14,0,0.00000014
4.5,8940,0.594,1.32,0,0.00000014
5,8940,0.678,1.61,0,0.00000014
5.5,8940,0.768,1.9,0,0.00000014
6,8940,0.863,2.22,0,0.00000014
6.5,8940,0.965,2.56,0,0.00000014
7,8940,1.07,2.93,0,0.00000014
7.5,8940,1.19,3.33,0,0.00000014
8,8940,1.31,3.75,0,0.00000014
8.5,8940,1.44,4.18,0,0.00000014
9,8940,1.58,4.64,0,0.00000014
9.5,8940,1.77,5.15,0,0.00000014
10,8940,1.88,5.6,0,0.00000014
10.5,8940,2.01,6.06,0,0.00000014
11,8940,2.14,6.54,0,0.00000014
11.5,8940,2.28,7.03,0,0.00000014
12,8940,2.43,7.52,0,0.00000014
12.5,8940,2.6,8.02,0,0.00000014
13,8940,2.77,8.53,0,0.00000014
13.5,8940,2.97,9.05,0,0.00000014
14,8940,3.17,9.57,0,0.00000014
14.5,8940,3.4,10.1,0,0.00000014
15,8940,3.64,10.6,3.07295e-08,0.00000014
15.5,8940,3.91,11.2,5.54771e-08,0.00000014
16,8940,4.19,11.7,8.16699e-08,0.00000014
16.5,8940,4.5,12.3,1.29287e-07,0.00000014
17,8940,4.84,12.8,1.68309e-07,0.00000014
17.5,8940,5.2,13.4,2.08716e-07,0.00000014
18,8940,5.59,13.9,2.40487e-07,0.00000014
18.5,8940,6,14.5,2.93603e-07,0.00000014
19,8940,6.45,15,3.38045e-07,0.00000014
19.5,8940,6.83,15.6,3.73792e-07,0.00000014
20,8940,7.44,16.1,4.10825e-07,0.00000014
20.5,8940,8.08,16.6,4.49126e-07,0.00000014
21,8940,8.76,17.1,4.68675e-07,0.00000014
21.5,8940,9.47,17.6,4.89453e-07,0.00000014
22,8940,10.2,18.1,5.09453e-07,0.00000014
22.5,8940,11,18.6,5.21442e-07,0.00000014
23,8940,11.8,19.1,5.48978e-07,0.00000014
23.5,8940,12.7,19.6,5.64487e-07,0.00000014
24,8940,13.5,20.1,5.81134e-07,0.00000014
24.5,8940,14.4,20.6,5.989e-07,0.00000014
25,8940,15.4,21.1,6.17767e-07,0.00000014
25.5,8940,16.4,21.5,6.37717e-07,0.00000014
26,8940,17.4,22,6.58733e-07,0.00000014
26.5,8940,18.4,22.5,6.80798e-07,0.00000014
27,8940,19.5,22.9,7.03893e-07,0.00000014
27.5,8940,20.6,23.4,7.28003e-07,0.00000014
28,8940,21.8,23.8,7.53109e-07,0.00000014
28.5,8940,23,24.2,7.79194e-07,0.00000014
29,8940,24.2,24.7,8.06243e-07,0.00000014
29.5,8940,25.3,25.1,8.34239e-07,0.00000014
30,8940,26.7,25.5,8.63164e-07,0.00000014
30.5,8940,28.1,25.9,8.93003e-07,0.00000014
31,8940,29.5,26.2,9.23739e-07,0.00000014
31.5,8940,30.9,26.6,9.55357e-07,0.00000014
32,8940,32.4,26.9,9.87839e-07,0.00000014
32.5,8940,33.9,27.3,1.02117e-06,0.00000014
33,8940,35.4,27.6,1.05534e-06,0.00000014
33.5,8940,37,27.9,1.09032e-06,0.00000014
34,8940,38.6,28.3,1.12611e-06,0.00000014
34.5,8940,40.2,28.6,1.16268e-06,0.00000014
35,8940,41.8,28.9,1.20003e-06,0.00000014
35.5,8940,43.4,29.2,1.23813e-06,0.00000014
36,8940,45.1,29.5,1.27698e-06,0.00000014
36.5,8940,46.8,29.8,1.31655e-06,0.00000014
37,8940,48.5,30,1.35684e-06,0.00000014
37.5,8940,50.2,30.3,1.39783e-06,0.00000014
38,8940,51.9,30.6,1.4395e-06,0.00000014
38.5,8940,53.7,30.8,1.48183e-06,0.00000014
39,8940,55.4,31.1,1.52483e-06,0.00000014
39.5,8940,57.3,31.3,1.56847e-06,0.00000014
40,8940,59,31.6,1.61273e-06,0.00000014
40.5,8940,60.7,31.9,1.65761e-06,0.00000014
41,8940,62.4,32.1,1.70309e-06,0.00000014
41.5,8940,64.2,32.4,1.74915e-06,0.00000014
42,8940,65.9,32.6,1.79579e-06,0.00000014
42.5,8940,67.6,32.9,1.84299e-06,0.00000014
43,8940,69.4,33.1,1.89074e-06,0.00000014
43.5,8940,71.2,33.3,1.93902e-06,0.00000014
44,8940,72.9,33.5,1.98782e-06,0.00000014
44.5,8940,74.7,33.8,2.03713e-06,0.00000014
45,8940,76.5,34,2.08694e-06,0.00000014
45.5,8940,78.3,34.2,2.13723e-06,0.00000014
46,8940,80.1,34.4,2.18799e-06,0.00000014
46.5,8940,82,34.6,2.23921e-06,0.00000014
47,8940,83.8,34.8,2.29088e-06,0.00000014
47.5,8940,85.6,35,2.34298e-06,0.00000014
48,8940,87.5,35.1,2.3955e-06,0.00000014
48.5,8940,89.4,35.3,2.44844e-06,0.000000141
49,8940,91.2,35.5,2.50177e-06,0.000000141
49.5,8940,93.1,35.7,2.55549e-06,0.000000141
50,8940,95,35.8,2.60959e-06,0.000000141
50.5,8940,97,35.9,2.66405e-06,0.000000141
51,8940,98.9,36.1,2.71886e-06,0.000000141
51.5,8940,101,36.2,2.77402e-06,0.000000141
52,8940,103,36.3,2.82951e-06,0.000000141
52.5,8940,105,36.4,2.88532e-06,0.000000141
53,8940,107,36.5,2.94144e-06,0.000000141
53.5,8940,109,36.6,2.99786e-06,0.000000141
54,8940,111,36.7,3.05457e-06,0.000000141
54.5,8940,113,36.8,3.11155e-06,0.000000141
55,8940,115,36.9,3.16881e-06,0.000000141
55.5,8940,117,37,3.22632e-06,0.000000141
56,8940,119,37,3.28408e-06,0.000000141
56.5,8940,121,37.1,3.34207e-06,0.000000141
57,8940,123,37.2,3.4003e-06,0.000000141
57.5,8940,125,37.2,3.45874e-06,0.000000141
58,8940,127,37.3,3.51739e-06,0.000000141
58.5,8940,129,37.4,3.57624e-06,0.000000141
59,8940,131,37.4,3.63528e-06,0.000000141
59.5,8940,133,37.4,3.6945e-06,0.000000141
60,8940,135,37.5,3.75389e-06,0.000000141
60.5,8940,137,37.6,3.81344e-06,0.000000141
61,8940,139,37.6,3.87315e-06,0.000000141
61.5,8940,141,37.7,3.933e-06,0.000000141
62,8940,143,37.7,3.99298e-06,0.000000141
62.5,8940,145,37.7,4.05309e-06,0.000000141
63,8940,147,37.8,4.11332e-06,0.000000142
63.5,8940,149,37.8,4.17366e-06,0.000000142
64,8940,151,37.9,4.2341e-06,0.000000142
64.5,8940,153,37.9,4.29463e-06,0.000000142
65,8940,155,37.9,4.35525e-06,0.000000142
65.5,8940,156,37.9,4.41594e-06,0.000000142
66,8940,158,38,4.4767e-06,0.000000142
66.5,8940,160,38,4.53753e-06,0.000000142
67,8940,162,38,4.5984e-06,0.000000142
67.5,8940,164,38,4.65932e-06,0.000000142
68,8940,166,38,4.72028e-06,0.000000142
68.5,8940,168,38,4.78127e-06,0.000000142
69,8940,169,38,4.84228e-06,0.000000142
69.5,8940,171,38,4.9033e-06,0.000000142
70,8940,173,38,4.96434e-06,0.000000142
70.5,8940,175,38,5.02537e-06,0.000000142
71,8940,176,37.9,5.0864e-06,0.000000142
71.5,8940,178,37.9,5.14742e-06,0.000000142
72,8940,180,37.9,5.20842e-06,0.000000142
72.5,8940,182,37.8,5.26939e-06,0.000000142
73,8940,183,37.8,5.33033e-06,0.000000143
73.5,8940,185,37.7,5.39123e-06,0.000000143
74,8940,186,37.7,5.45209e-06,0.000000143
74.5,8940,188,37.6,5.51289e-06,0.000000143
75,8940,190,37.6,5.57363e-06,0.000000143
75.5,8940,191,37.5,5.63431e-06,0.000000143
76,8940,193,37.5,5.69492e-06,0.000000143
76.5,8940,194,37.4,5.75546e-06,0.000000143
77,8940,196,37.4,5.81591e-06,0.000000143
77.5,8940,198,37.3,5.87627e-06,0.000000143
78,8940,199,37.2,5.93654e-06,0.000000143
78.5,8940,201,37.2,5.99671e-06,0.000000143
79,8940,202,37.1,6.05678e-06,0.000000143
79.5,8940,203,37.1,6.11673e-06,0.000000143
80,8940,205,37,6.17657e-06,0.000000144
80.5,8940,207,36.9,6.23629e-06,0.000000144
81,8940,208,36.9,6.29588e-06,0.000000144
81.5,8940,210,36.8,6.35535e-06,0.000000144
82,8940,211,36.8,6.41467e-06,0.000000144
82.5,8940,213,36.7,6.47386e-06,0.000000144
83,8940,214,36.7,6.5329e-06,0.000000144
83.5,8940,215,36.6,6.59178e-06,0.000000144
84,8940,217,36.6,6.65052e-06,0.000000144
84.5,8940,218,36.5,6.70909e-06,0.000000144
85,8940,220,36.5,6.7675e-06,0.000000144
85.5,8940,221,36.4,6.82574e-06,0.000000144
86,8940,222,36.4,6.88381e-06,0.000000144
86.5,8940,224,36.3,6.9417e-06,0.000000144
87,8940,225,36.3,6.99941e-06,0.000000144
87.5,8940,226,36.2,7.05693e-06,0.000000145
88,8940,227,36.2,7.11427e-06,0.000000145
88.5,8940,229,36.1,7.17141e-06,0.000000145
89,8940,230,36.1,7.22835e-06,0.000000145
89.5,8940,231,36,7.28509e-06,0.000000145
90,8940,232,36,7.34163e-06,0.000000145
90.5,8940,233,36,7.39796e-06,0.000000145
91,8940,234,35.9,7.45408e-06,0.000000145
91.5,8940,235,35.9,7.50998e-06,0.000000145
92,8940,236,35.9,7.56566e-06,0.000000145
92.5,8940,236,35.8,7.62113e-06,0.000000146
93,8940,237,35.8,7.67636e-06,0.000000146
93.5,8940,238,35.8,7.73137e-06,0.000000146
94,8940,239,35.7,7.78615e-06,0.000000146
94.5,8940,239,35.7,7.84069e-06,0.000000146
95,8940,240,35.7,7.89499e-06,0.000000146
95.5,8940,240,35.7,7.94906e-06,0.000000146
96,8940,241,35.7,8.00288e-06,0.000000146
96.5,8940,242,35.6,8.05645e-06,0.000000147
97,8940,242,35.6,8.10978e-06,0.000000147
97.5,8940,243,35.6,8.16285e-06,0.000000147
98,8940,243,35.6,8.21567e-06,0.000000147
98.5,8940,244,35.5,8.26824e-06,0.000000147
99,8940,244,35.5,8.32054e-06,0.000000147
99.5,8940,244,35.5,8.37259e-06,0.000000147
100,8940,245,35.5,8.42437e-06,0.000000148
100.5,8940,246,35.5,8.47589e-06,0.000000148
101,8940,246,35.5,8.52714e-06,0.000000148
101.5,8940,247,35.5,8.57812e-06,0.000000148
102,8940,248,35.5,8.62883e-06,0.000000148
102.5,8940,249,35.5,8.67927e-06,0.000000148
103,8940,249,35.4,8.72943e-06,0.000000148
103.5,8940,250,35.4,8.77931e-06,0.000000148
104,8940,251,35.4,8.82892e-06,0.000000148
104.5,8940,251,35.4,8.87824e-06,0.000000148
105,8940,252,35.4,8.92728e-06,0.000000148
105.5,8940,253,35.4,8.97604e-06,0.000000148
106,8940,254,35.4,9.02452e-06,0.000000149
106.5,8940,254,35.4,9.07271e-06,0.000000149
107,8940,255,35.4,9.12061e-06,0.000000149
107.5,8940,256,35.4,9.16822e-06,0.000000149
108,8940,257,35.3,9.21554e-06,0.000000149
108.5,8940,258,35.3,9.26257e-06,0.000000149
109,8940,258,35.3,9.30931e-06,0.000000149
109.5,8940,259,35.3,9.35575e-06,0.000000149
110,8940,260,35.3,9.4019e-06,0.000000149
110.5,8940,261,35.3,9.44775e-06,0.000000149
111,8940,261,35.3,9.49331e-06,0.000000149
111.5,8940,262,35.3,9.53857e-06,0.000000149
112,8940,263,35.3,9.58353e-06,0.000000149
112.5,8940,264,35.3,9.6282e-06,0.000000149
113,8940,265,35.2,9.67256e-06,0.000000149
113.5,8940,265,35.2,9.71663e-06,0.000000149
114,8940,266,35.2,9.76039e-06,0.000000149
114.5,8940,267,35.2,9.80385e-06,0.00000015
115,8940,268,35.2,9.84702e-06,0.00000015
115.5,8940,269,35.2,9.88988e-06,0.00000015
116,8940,269,35.2,9.93243e-06,0.00000015
116.5,8940,270,35.2,9.97469e-06,0.00000015
117,8940,271,35.2,1.00166e-05,0.00000015
117.5,8940,272,35.2,1.00583e-05,0.00000015
118,8940,273,35.1,1.00996e-05,0.00000015
118.5,8940,273,35.1,1.01407e-05,0.00000015
119,8940,274,35.1,1.01814e-05,0.00000015
119.5,8940,275,35.1,1.02219e-05,0.00000015
120,8940,276,35.1,1.0262e-05,0.00000015
120.5,8940,277,35.1,1.03018e-05,0.00000015
121,8940,277,35.1,1.03414e-05,0.00000015
121.5,8940,278,35.1,1.03806e-05,0.00000015
122,8940,279,35.1,1.04195e-05,0.00000015
122.5,8940,280,35.1,1.04581e-05,0.00000015
123,8940,281,35,1.04964e-05,0.00000015
123.5,8940,281,35,1.05345e-05,0.00000015
124,8940,282,35,1.05722e-05,0.00000015
124.5,8940,283,35,1.06096e-05,0.00000015
125,8940,284,35,1.06467e-05,0.00000015
125.5,8940,285,35,1.06835e-05,0.00000015
126,8940,286,35,1.07201e-05,0.00000015
126.5,8940,286,35,1.07563e-05,0.00000015
127,8940,287,35,1.07922e-05,0.00000015
127.5,8940,288,35,1.08278e-05,0.00000015
128,8940,289,34.9,1.08632e-05,0.00000015
128.5,8940,290,34.9,1.08982e-05,0.00000015
129,8940,290,34.9,1.09329e-05,0.00000015
129.5,8940,291,34.9,1.09674e-05,0.00000015
130,8940,292,34.9,1.10015e-05,0.00000015
130.5,8940,293,34.9,1.10354e-05,0.00000015
131,8940,294,34.9,1.1069e-05,0.00000015
131.5,8940,295,34.9,1.11023e-05,0.00000015
132,8940,295,34.9,1.11353e-05,0.00000015
132.5,8940,296,34.9,1.1168e-05,0.00000015
133,8940,297,34.8,1.12004e-05,0.00000015
133.5,8940,298,34.8,1.12325e-05,0.00000015
134,8940,299,34.8,1.12644e-05,0.00000015
134.5,8940,299,34.8,1.1296e-05,0.00000015
135,8940,300,34.8,1.13272e-05,0.00000015
135.5,8940,301,34.8,1.13583e-05,0.00000015
136,8940,302,34.8,1.1389e-05,0.00000015
136.5,8940,303,34.8,1.14194e-05,0.00000015
137,8940,303,34.8,1.14496e-05,0.00000015
137.5,8940,304,34.8,1.14795e-05,0.00000015
138,8940,305,34.7,1.15092e-05,0.00000015
138.5,8940,306,34.7,1.15385e-05,0.00000015
139,8940,307,34.7,1.15676e-05,0.00000015
139.5,8940,307,34.7,1.15964e-05,0.00000015
140,8940,308,34.7,1.1625e-05,0.00000015
140.5,8940,309,34.7,1.16533e-05,0.00000015
141,8940,310,34.7,1.16813e-05,0.00000015
141.5,8940,310,34.7,1.17091e-05,0.00000015
142,8940,311,34.7,1.17366e-05,0.00000015
142.5,8940,312,34.7,1.17638e-05,0.00000015
143,8940,313,34.6,1.17908e-05,0.00000015
143.5,8940,313,34.6,1.18175e-05,0.00000015
144,8940,314,34.6,1.1844e-05,0.00000015
144.5,8940,315,34.6,1.18702e-05,0.00000015
145,8940,316,34.6,1.18962e-05,0.00000015
145.5,8940,316,34.6,1.19219e-05,0.00000015
146,8940,317,34.6,1.19474e-05,0.00000015
146.5,8940,318,34.6,1.19727e-05,0.00000015
147,8940,319,34.6,1.19977e-05,0.00000015
147.5,8940,319,34.6,1.20224e-05,0.00000015
148,8940,320,34.5,1.20469e-05,0.00000015
148.5,8940,321,34.5,1.20712e-05,0.00000015
149,8940,322,34.5,1.20953e-05,0.00000015
149.5,8940,322,34.5,1.21191e-05,0.00000015
150,8940,323,34.5,1.21427e-05,0.00000015
150.5,8940,324,34.5,1.21661e-05,0.00000015
151,8940,324,34.5,1.21892e-05,0.00000015
151.5,8940,324,34.5,1.22121e-05,0.00000015
152,8940,325,34.5,1.22348e-05,0.00000015
152.5,8940,325,34.5,1.22573e-05,0.00000015
153,8940,326,34.5,1.22795e-05,0.00000015
153.5,8940,326,34.5,1.23016e-05,0.00000015
154,8940,327,34.5,1.23234e-05,0.00000015
154.5,8940,327,34.5,1.2345e-05,0.00000015
155,8940,328,34.5,1.23664e-05,0.00000015
155.5,8940,328,34.5,1.23876e-05,0.00000015
156,8940,329,34.6,1.24086e-05,0.000000151
156.5,8940,329,34.6,1.24294e-05,0.000000151
157,8940,330,34.6,1.245e-05,0.000000151
157.5,8940,330,34.6,1.24704e-05,0.000000151
158,8940,331,34.6,1.24906e-05,0.000000151
158.5,8940,331,34.6,1.25106e-05,0.000000151
159,8940,331,34.6,1.25304e-05,0.000000151
159.5,8940,332,34.6,1.255e-05,0.000000151
160,8940,332,34.6,1.25695e-05,0.000000151
160.5,8940,333,34.6,1.25887e-05,0.000000151
161,8940,333,34.6,1.26078e-05,0.000000151
161.5,8940,333,34.6,1.26267e-05,0.000000151
162,8940,334,34.6,1.26454e-05,0.000000151
162.5,8940,334,34.6,1.2664e-05,0.000000151
163,8940,335,34.6,1.26824e-05,0.000000151
163.5,8940,335,34.7,1.27006e-05,0.000000151
164,8940,335,34.7,1.27186e-05,0.000000151
164.5,8940,336,34.7,1.27365e-05,0.000000151
165,8940,336,34.7,1.27542e-05,0.000000151
165.5,8940,337,34.7,1.27718e-05,0.000000151
166,8940,337,34.7,1.27892e-05,0.000000151
166.5,8940,337,34.7,1.28064e-05,0.000000152
167,8940,338,34.7,1.28235e-05,0.000000152
167.5,8940,338,34.7,1.28404e-05,0.000000152
168,8940,338,34.7,1.28572e-05,0.000000152
168.5,8940,339,34.7,1.28739e-05,0.000000152
169,8940,339,34.8,1.28904e-05,0.000000152
169.5,8940,340,34.8,1.29067e-05,0.000000152
170,8940,340,34.8,1.29229e-05,0.000000152
170.5,8940,340,34.8,1.2939e-05,0.000000152
171,8940,341,34.8,1.2955e-05,0.000000152
171.5,8940,341,34.8,1.29708e-05,0.000000152
172,8940,341,34.8,1.29865e-05,0.000000152
172.5,8940,342,34.8,1.30021e-05,0.000000152
173,8940,342,34.8,1.30175e-05,0.000000152
173.5,8940,342,34.8,1.30328e-05,0.000000152
174,8940,343,34.9,1.3048e-05,0.000000152
174.5,8940,343,34.9,1.30631e-05,0.000000152
175,8940,343,34.9,1.30781e-05,0.000000152
175.5,8940,344,34.9,1.30929e-05,0.000000152
176,8940,344,34.9,1.31077e-05,0.000000153
176.5,8940,344,34.9,1.31223e-05,0.000000153
177,8940,344,34.9,1.31369e-05,0.000000153
177.5,8940,345,34.9,1.31513e-05,0.000000153
178,8940,345,34.9,1.31656e-05,0.000000153
178.5,8940,345,35,1.31799e-05,0.000000153
179,8940,346,35,1.3194e-05,0.000000153
179.5,8940,346,35,1.3208e-05,0.000000153
180,8940,346,35,1.3222e-05,0.000000153
180.5,8940,347,35,1.32358e-05,0.000000153
181,8940,347,35,1.32496e-05,0.000000153
181.5,8940,347,35,1.32633e-05,0.000000153
182,8940,347,35,1.32769e-05,0.000000153
182.5,8940,348,35,1.32904e-05,0.000000153
183,8940,348,35.1,1.33039e-05,0.000000153
183.5,8940,348,35.1,1.33173e-05,0.000000153
184,8940,349,35.1,1.33306e-05,0.000000153
184.5,8940,349,35.1,1.33438e-05,0.000000153
185,8940,349,35.1,1.33569e-05,0.000000153
185.5,8940,349,35.1,1.337e-05,0.000000153
186,8940,350,35.1,1.33831e-05,0.000000154
186.5,8940,350,35.1,1.3396e-05,0.000000154
187,8940,350,35.2,1.34089e-05,0.000000154
187.5,8940,350,35.2,1.34218e-05,0.000000154
188,8940,351,35.2,1.34345e-05,0.000000154
188.5,8940,351,35.2,1.34473e-05,0.000000154
189,8940,351,35.2,1.34599e-05,0.000000154
189.5,8940,351,35.2,1.34726e-05,0.000000154
190,8940,352,35.2,1.34851e-05,0.000000154
190.5,8940,352,35.2,1.34977e-05,0.000000154
191,8940,352,35.3,1.35101e-05,0.000000154
191.5,8940,352,35.3,1.35226e-05,0.000000154
192,8940,353,35.3,1.3535e-05,0.000000154
192.5,8940,353,35.3,1.35473e-05,0.000000154
193,8940,353,35.3,1.35597e-05,0.000000154
193.5,8940,353,35.3,1.35719e-05,0.000000154
194,8940,353,35.3,1.35842e-05,0.000000154
194.5,8940,354,35.4,1.35964e-05,0.000000154
195,8940,354,35.4,1.36086e-05,0.000000154
195.5,8940,354,35.4,1.36207e-05,0.000000155
196,8940,354,35.4,1.36329e-05,0.000000155
196.5,8940,355,35.4,1.3645e-05,0.000000155
197,8940,355,35.4,1.36571e-05,0.000000155
197.5,8940,355,35.4,1.36691e-05,0.000000155
198,8940,355,35.4,1.36811e-05,0.000000155
198.5,8940,355,35.5,1.36932e-05,0.000000155
199,8940,356,35.5,1.37052e-05,0.000000155
199.5,8940,356,35.5,1.37171e-05,0.000000155
200,8940,356,35.5,1.37291e-05,0.000000155
200.5,8940,356,35.5,1.3741e-05,0.000000155
201,8940,356,35.5,1.3753e-05,0.000000155
201.5,8940,357,35.5,1.37649e-05,0.000000155
202,8940,357,35.5,1.37768e-05,0.000000155
202.5,8940,357,35.5,1.37887e-05,0.000000155
203,8940,357,35.6,1.38006e-05,0.000000155
203.5,8940,358,35.6,1.38125e-05,0.000000155
204,8940,358,35.6,1.38244e-05,0.000000155
204.5,8940,358,35.6,1.38363e-05,0.000000155
205,8940,358,35.6,1.38482e-05,0.000000155
205.5,8940,359,35.6,1.38601e-05,0.000000155
206,8940,359,35.6,1.38719e-05,0.000000155
206.5,8940,359,35.6,1.38838e-05,0.000000155
207,8940,359,35.6,1.38957e-05,0.000000155
207.5,8940,359,35.6,1.39076e-05,0.000000155
208,8940,360,35.7,1.39195e-05,0.000000155
208.5,8940,360,35.7,1.39314e-05,0.000000156
209,8940,360,35.7,1.39433e-05,0.000000156
209.5,8940,360,35.7,1.39552e-05,0.000000156
210,8940,360,35.7,1.39671e-05,0.000000156
210.5,8940,361,35.7,1.3979e-05,0.000000156
211,8940,361,35.7,1.39909e-05,0.000000156
211.5,8940,361,35.7,1.40028e-05,0.000000156
212,8940,361,35.7,1.40148e-05,0.000000156
212.5,8940,362,35.7,1.40267e-05,0.000000156
213,8940,362,35.8,1.40387e-05,0.000000156
213.5,8940,362,35.8,1.40507e-05,0.000000156
214,8940,362,35.8,1.40626e-05,0.000000156
214.5,8940,362,35.8,1.40746e-05,0.000000156
215,8940,363,35.8,1.40866e-05,0.000000156
215.5,8940,363,35.8,1.40986e-05,0.000000156
216,8940,363,35.8,1.41107e-05,0.000000156
216.5,8940,363,35.8,1.41227e-05,0.000000156
217,8940,363,35.8,1.41347e-05,0.000000156
217.5,8940,363,35.8,1.41468e-05,0.000000156
218,8940,364,35.9,1.41589e-05,0.000000156
218.5,8940,364,35.9,1.4171e-05,0.000000156
219,8940,364,35.9,1.4183e-05,0.000000156
219.5,8940,364,35.9,1.41952e-05,0.000000156
220,8940,364,35.9,1.42073e-05,0.000000156
220.5,8940,365,35.9,1.42194e-05,0.000000156
221,8940,365,35.9,1.42315e-05,0.000000156
221.5,8940,365,35.9,1.42437e-05,0.000000156
222,8940,365,35.9,1.42559e-05,0.000000156
222.5,8940,365,35.9,1.4268e-05,0.000000156
223,8940,366,36,1.42802e-05,0.000000156
223.5,8940,366,36,1.42924e-05,0.000000156
224,8940,366,36,1.43046e-05,0.000000156
224.5,8940,366,36,1.43168e-05,0.000000157
225,8940,366,36,1.4329e-05,0.000000157
225.5,8940,366,36,1.43412e-05,0.000000157
226,8940,367,36,1.43534e-05,0.000000157
226.5,8940,367,36,1.43657e-05,0.000000157
227,8940,367,36,1.43779e-05,0.000000157
227.5,8940,367,36,1.43901e-05,0.000000157
228,8940,367,36.1,1.44024e-05,0.000000157
228.5,8940,367,36.1,1.44146e-05,0.000000157
229,8940,368,36.1,1.44268e-05,0.000000157
229.5,8940,368,36.1,1.44391e-05,0.000000157
230,8940,368,36.1,1.44513e-05,0.000000157
230.5,8940,368,36.1,1.44635e-05,0.000000157
231,8940,368,36.1,1.44757e-05,0.000000157
231.5,8940,368,36.1,1.44879e-05,0.000000157
232,8940,369,36.1,1.45001e-05,0.000000157
232.5,8940,369,36.1,1.45123e-05,0.000000157
233,8940,369,36.2,1.45245e-05,0.000000157
233.5,8940,369,36.2,1.45367e-05,0.000000157
234,8940,369,36.2,1.45488e-05,0.000000157
234.5,8940,369,36.2,1.45609e-05,0.000000157
235,8940,370,36.2,1.45731e-05,0.000000157
235.5,8940,370,36.2,1.45851e-05,0.000000157
236,8940,370,36.2,1.45972e-05,0.000000157
236.5,8940,370,36.2,1.46092e-05,0.000000158
237,8940,370,36.2,1.46213e-05,0.000000158
237.5,8940,370,36.2,1.46332e-05,0.000000158
238,8940,371,36.3,1.46452e-05,0.000000158
238.5,8940,371,36.3,1.46571e-05,0.000000158
239,8940,371,36.3,1.4669e-05,0.000000158
239.5,8940,371,36.3,1.46808e-05,0.000000158
240,8940,371,36.3,1.46926e-05,0.000000158
240.5,8940,371,36.3,1.47043e-05,0.000000158
241,8940,371,36.3,1.4716e-05,0.000000158
241.5,8940,372,36.3,1.47277e-05,0.000000158
242,8940,372,36.3,1.47393e-05,0.000000158
242.5,8940,372,36.3,1.47508e-05,0.000000158
243,8940,372,36.4,1.47623e-05,0.000000158
243.5,8940,372,36.4,1.47737e-05,0.000000158
244,8940,372,36.4,1.4785e-05,0.000000158
244.5,8940,372,36.4,1.47963e-05,0.000000158
245,8940,373,36.4,1.48075e-05,0.000000158
245.5,8940,373,36.4,1.48187e-05,0.000000158
246,8940,373,36.4,1.48297e-05,0.000000159
246.5,8940,373,36.4,1.48407e-05,0.000000159
247,8940,373,36.4,1.48516e-05,0.000000159
247.5,8940,373,36.4,1.48624e-05,0.000000159
248,8940,373,36.5,1.48731e-05,0.000000159
248.5,8940,374,36.5,1.48837e-05,0.000000159
249,8940,374,36.5,1.48942e-05,0.000000159
249.5,8940,374,36.5,1.49046e-05,0.000000159
250,8940,374,36.5,1.49148e-05,0.000000159
250.5,8940,374,36.5,1.4925e-05,0.000000159
251,8940,374,36.5,1.49351e-05,0.000000159
251.5,8940,374,36.5,1.4945e-05,0.000000159
252,8940,375,36.5,1.49548e-05,0.000000159
252.5,8940,375,36.6,1.49645e-05,0.000000159
253,8940,375,36.6,1.4974e-05,0.000000159
253.5,8940,375,36.6,1.49834e-05,0.00000016
254,8940,375,36.6,1.49926e-05,0.00000016
254.5,8940,375,36.6,1.50017e-05,0.00000016
255,8940,375,36.6,1.50107e-05,0.00000016
255.5,8940,376,36.6,1.50195e-05,0.00000016
256,8940,376,36.6,1.50281e-05,0.00000016
256.5,8940,376,36.6,1.50365e-05,0.00000016
257,8940,376,36.7,1.50448e-05,0.00000016
257.5,8940,376,36.7,1.50529e-05,0.00000016
258,8940,376,36.7,1.50608e-05,0.00000016
258.5,8940,376,36.7,1.50685e-05,0.00000016
259,8940,376,36.7,1.5076e-05,0.00000016
259.5,8940,377,36.7,1.50834e-05,0.000000161
260,8940,377,36.7,1.50905e-05,0.000000161
260.5,8940,377,36.7,1.50973e-05,0.000000161
261,8940,377,36.7,1.5104e-05,0.000000161
261.5,8940,377,36.8,1.51105e-05,0.000000161
262,8940,377,36.8,1.51167e-05,0.000000161
262.5,8940,377,36.8,1.51226e-05,0.000000161
263,8940,378,36.8,1.51284e-05,0.000000161
263.5,8940,378,36.8,1.51338e-05,0.000000161
264,8940,378,36.8,1.5139e-05,0.000000161
264.5,8940,378,36.8,1.5144e-05,0.000000161
265,8940,378,36.8,1.51487e-05,0.000000162
265.5,8940,378,36.8,1.51531e-05,0.000000162
266,8940,378,36.9,1.51572e-05,0.000000162
266.5,8940,378,36.9,1.5161e-05,0.000000162
267,8940,379,36.9,1.51645e-05,0.000000162
267.5,8940,379,36.9,1.51677e-05,0.000000162
268,8940,379,36.9,1.51706e-05,0.000000162
268.5,8940,379,36.9,1.51732e-05,0.000000162
269,8940,379,36.9,1.51755e-05,0.000000162
269.5,8940,379,36.9,1.51774e-05,0.000000162
270,8940,379,36.9,1.5179e-05,0.000000162
270.5,8940,379,36.9,1.51802e-05,0.000000163
271,8940,380,37,1.5181e-05,0.000000163
271.5,8940,380,37,1.51815e-05,0.000000163
272,8940,380,37,1.51816e-05,0.000000163
272.5,8940,380,37,1.51814e-05,0.000000163
273,8940,380,37,1.51807e-05,0.000000163
273.5,8940,380,37,1.51797e-05,0.000000163
274,8940,380,37,1.51782e-05,0.000000163
274.5,8940,380,37,1.51782e-05,0.000000163
275,8940,380,37,1.51782e-05,0.000000163
275.5,8940,381,37.1,1.51782e-05,0.000000163
276,8940,381,37.1,1.51782e-05,0.000000164
276.5,8940,381,37.1,1.51782e-05,0.000000164
277,8940,381,37.1,1.51782e-05,0.000000164
277.5,8940,381,37.1,1.51782e-05,0.000000164
278,8940,381,37.1,1.51782e-05,0.000000164
278.5,8940,381,37.1,1.51782e-05,0.000000164
279,8940,381,37.1,1.51782e-05,0.000000164
279.5,8940,382,37.1,1.51782e-05,0.000000164
280,8940,382,37.1,1.51782e-05,0.000000164
280.5,8940,382,37.2,1.51782e-05,0.000000164
281,8940,382,37.2,1.51782e-05,0.000000164
281.5,8940,382,37.2,1.51782e-05,0.000000165
282,8940,382,37.2,1.51782e-05,0.000000165
282.5,8940,382,37.2,1.51782e-05,0.000000165
283,8940,382,37.2,1.51782e-05,0.000000165
283.5,8940,382,37.2,1.51782e-05,0.000000165
284,8940,383,37.2,1.51782e-05,0.000000165
284.5,8940,383,37.2,1.51782e-05,0.000000165
285,8940,383,37.2,1.51782e-05,0.000000165
285.5,8940,383,37.2,1.51782e-05,0.000000165
286,8940,383,37.3,1.51782e-05,0.000000165
286.5,8940,383,37.3,1.51782e-05,0.000000166
287,8940,383,37.3,1.51782e-05,0.000000166
287.5,8940,383,37.3,1.51782e-05,0.000000166
288,8940,383,37.3,1.51782e-05,0.000000166
288.5,8940,384,37.3,1.51782e-05,0.000000166
289,8940,384,37.3,1.51782e-05,0.000000166
289.5,8940,384,37.3,1.51782e-05,0.000000166
290,8940,384,37.3,1.51782e-05,0.000000166
290.5,8940,384,37.3,1.51782e-05,0.000000166
291,8940,384,37.3,1.51782e-05,0.000000166
291.5,8940,384,37.4,1.51782e-05,0.000000166
292,8940,384,37.4,1.51782e-05,0.000000167
292.5,8940,384,37.4,1.51782e-05,0.000000167
293,8940,385,37.4,1.51782e-05,0.000000167
293.5,8940,385,37.4,1.51782e-05,0.000000167
294,8940,385,37.4,1.51782e-05,0.000000167
294.5,8940,385,37.4,1.51782e-05,0.000000167
295,8940,385,37.4,1.51782e-05,0.000000167
295.5,8940,385,37.4,1.51782e-05,0.000000167
296,8940,385,37.4,1.51782e-05,0.000000167
296.5,8940,385,37.4,1.51782e-05,0.000000167
297,8940,385,37.5,1.51782e-05,0.000000167
297.5,8940,385,37.5,1.51782e-05,0.000000168
298,8940,386,37.5,1.51782e-05,0.000000168
298.5,8940,386,37.5,1.51782e-05,0.000000168
299,8940,386,37.5,1.51782e-05,0.000000168
299.5,8940,386,37.5,1.51782e-05,0.000000168
300,8940,386,37.5,1.51782e-05,0.000000168