File: SolidProps/lib/COPPER-NICKEL_57-43.csv
T/K,rho/(kg/m3),cp/(J/(kg.K)),K/(W/(m.K)),alpha_thermal/(1/K),resistivity/(ohm.m)
1,8938,0.113,0.095,1.11427e-08,0.000000461
1.5,8938,0.161,0.18,2.25898e-08,0.000000461
2,8938,0.211,0.285,3.4473e-08,0.000000461
2.5,8938,0.264,0.409,4.6789e-08,0.000000461
3,8938,0.321,0.55,5.95345e-08,0.000000461
3.5,8938,0.381,0.707,7.27063e-08,0.000000461
4,8938,0.446,0.878,8.63011e-08,0.000000461
4.5,8938,0.516,1.06,1.00316e-07,0.000000461
5,8938,0.592,1.24,1.14747e-07,0.000000461
5.5,8938,0.673,1.43,1.29591e-07,0.000000461
6,8938,0.761,1.64,1.44846e-07,0.000000461
6.5,8938,0.855,1.85,1.60507e-07,0.000000461
7,8938,0.957,2.06,1.76572e-07,0.000000461
7.5,8938,1.07,2.29,1.93038e-07,0.000000461
8,8938,1.18,2.52,2.09901e-07,0.000000461
8.5,8938,1.31,2.76,2.27158e-07,0.000000461
9,8938,1.44,3,2.44806e-07,0.000000461
9.5,8938,1.62,3.26,2.62842e-07,0.000000461
10,8938,1.74,3.5,2.81262e-07,0.000000461
10.5,8938,1.86,3.75,3.00064e-07,0.000000461
11,8938,2,4,3.19244e-07,0.000000461
11.5,8938,2.14,4.25,3.388e-07,0.000000461
12,8938,2.3,4.51,3.58728e-07,0.000000461
12.5,8938,2.47,4.76,3.79025e-07,0.000000461
13,8938,2.65,5.02,3.99688e-07,0.000000461
13.5,8938,2.85,5.28,4.20713e-07,0.000000461
14,8938,3.07,5.55,4.42099e-07,0.000000461
14.5,8938,3.3,5.81,4.63841e-07,0.000000461
15,8938,3.55,6.07,4.85937e-07,0.000000461
15.5,8938,3.83,6.34,5.08384e-07,0.000000461
16,8938,4.12,6.6,5.31178e-07,0.000000461
16.5,8938,4.44,6.87,5.54317e-07,0.000000461
17,8938,4.78,7.13,5.77797e-07,0.000000461
17.5,8938,5.15,7.4,6.01616e-07,0.000000461
18,8938,5.55,7.66,6.2577e-07,0.000000461
18.5,8938,5.97,7.92,6.50257e-07,0.000000461
19,8938,6.43,8.18,6.75073e-07,0.000000461
19.5,8938,6.82,8.45,7.00216e-07,0.000000461
20,8938,7.44,8.7,7.25682e-07,0.000000461
20.5,8938,8.08,8.94,7.51469e-07,0.000000461
21,8938,8.76,9.19,7.77574e-07,0.000000461
21.5,8938,9.47,9.42,8.03993e-07,0.000000461
22,8938,10.2,9.66,8.30724e-07,0.000000461
22.5,8938,11,9.89,8.57764e-07,0.000000461
23,8938,11.8,10.1,8.8511e-07,0.000000461
23.5,8938,12.7,10.4,9.12759e-07,0.000000461
24,8938,13.5,10.6,9.40708e-07,0.000000461
24.5,8938,14.5,10.8,9.68954e-07,0.000000461
25,8938,15.4,11,9.97494e-07,0.000000461
25.5,8938,16.4,11.2,1.02633e-06,0.000000461
26,8938,17.4,11.4,1.05545e-06,0.000000461
26.5,8938,18.4,11.7,1.08485e-06,0.000000461
27,8938,19.5,11.9,1.11454e-06,0.000000461
27.5,8938,20.6,12.1,1.14451e-06,0.000000461
28,8938,21.8,12.3,1.17476e-06,0.000000461
28.5,8938,23,12.4,1.20528e-06,0.000000461
29,8938,24.2,12.6,1.23607e-06,0.000000461
29.5,8938,25.3,12.8,1.26713e-06,0.000000461
30,8938,26.7,13,1.29846e-06,0.000000461
30.5,8938,28.1,13.2,1.33005e-06,0.000000461
31,8938,29.5,13.3,1.3619e-06,0.000000461
31.5,8938,30.9,13.4,1.39401e-06,0.000000461
32,8938,32.4,13.6,1.42637e-06,0.000000461
32.5,8938,33.9,13.7,1.45899e-06,0.000000461
33,8938,35.4,13.9,1.49185e-06,0.000000461
33.5,8938,37,14,1.52497e-06,0.000000461
34,8938,38.6,14.1,1.55832e-06,0.000000461
34.5,8938,40.2,14.2,1.59192e-06,0.000000461
35,8938,41.8,14.4,1.62575e-06,0.000000461
35.5,8938,43.4,14.5,1.65983e-06,0.000000461
36,8938,45.1,14.6,1.69413e-06,0.000000461
36.5,8938,46.8,14.7,1.72866e-06,0.000000461
37,8938,48.5,14.8,1.76343e-06,0.000000461
37.5,8938,50.2,14.9,1.79841e-06,0.000000461
38,8938,51.9,15.1,1.83363e-06,0.000000461
38.5,8938,53.7,15.2,1.86906e-06,0.000000461
39,8938,55.4,15.3,1.9047e-06,0.000000461
39.5,8938,57.3,15.4,1.94056e-06,0.000000461
40,8938,59,15.5,1.97664e-06,0.000000461
40.5,8938,60.7,15.6,2.01292e-06,0.000000461
41,8938,62.4,15.8,2.04941e-06,0.000000461
41.5,8938,64.2,15.9,2.0861e-06,0.000000461
42,8938,65.9,16.1,2.123e-06,0.000000461
42.5,8938,67.6,16.2,2.16009e-06,0.000000461
43,8938,69.4,16.4,2.19738e-06,0.000000461
43.5,8938,71.2,16.5,2.23487e-06,0.000000461
44,8938,72.9,16.7,2.27255e-06,0.000000461
44.5,8938,74.7,16.8,2.31041e-06,0.000000461
45,8938,76.5,16.9,2.34846e-06,0.000000461
45.5,8938,78.3,17.1,2.3867e-06,0.000000461
46,8938,80.1,17.2,2.42511e-06,0.000000461
46.5,8938,82,17.3,2.46371e-06,0.000000461
47,8938,83.8,17.5,2.50248e-06,0.000000461
47.5,8938,85.6,17.6,2.54142e-06,0.000000461
48,8938,87.5,17.7,2.58054e-06,0.000000461
48.5,8938,89.4,17.8,2.61982e-06,0.000000461
49,8938,91.2,17.9,2.65927e-06,0.000000461
49.5,8938,93.1,18,2.69889e-06,0.000000461
50,8938,95,18.1,2.73866e-06,0.000000461
50.5,8938,97,18.1,2.7786e-06,0.000000461
51,8938,98.9,18.2,2.81869e-06,0.000000461
51.5,8938,101,18.2,2.85894e-06,0.000000462
52,8938,103,18.2,2.89933e-06,0.000000462
52.5,8938,105,18.3,2.93988e-06,0.000000462
53,8938,107,18.3,2.98057e-06,0.000000462
53.5,8938,109,18.3,3.02141e-06,0.000000462
54,8938,111,18.3,3.06239e-06,0.000000462
54.5,8938,113,18.3,3.10351e-06,0.000000462
55,8938,115,18.3,3.14477e-06,0.000000462
55.5,8938,117,18.3,3.18616e-06,0.000000462
56,8938,119,18.3,3.22769e-06,0.000000462
56.5,8938,121,18.3,3.26934e-06,0.000000462
57,8938,123,18.3,3.31113e-06,0.000000462
57.5,8938,125,18.3,3.35304e-06,0.000000462
58,8938,127,18.3,3.39507e-06,0.000000462
58.5,8938,129,18.3,3.43723e-06,0.000000462
59,8938,131,18.3,3.4795e-06,0.000000462
59.5,8938,133,18.3,3.52189e-06,0.000000462
60,8938,135,18.3,3.5644e-06,0.000000463
60.5,8938,137,18.3,3.60701e-06,0.000000463
61,8938,139,18.3,3.64974e-06,0.000000463
61.5,8938,141,18.4,3.69257e-06,0.000000463
62,8938,143,18.4,3.73551e-06,0.000000463
62.5,8938,145,18.4,3.77856e-06,0.000000463
63,8938,147,18.4,3.8217e-06,0.000000463
63.5,8938,149,18.5,3.86495e-06,0.000000463
64,8938,151,18.5,3.90828e-06,0.000000463
64.5,8938,153,18.5,3.95172e-06,0.000000463
65,8938,155,18.5,3.99524e-06,0.000000463
65.5,8938,156,18.6,4.03886e-06,0.000000463
66,8938,158,18.6,4.08257e-06,0.000000463
66.5,8938,160,18.6,4.12635e-06,0.000000463
67,8938,162,18.7,4.17023e-06,0.000000463
67.5,8938,164,18.7,4.21418e-06,0.000000463
68,8938,166,18.7,4.25822e-06,0.000000463
68.5,8938,168,18.7,4.30233e-06,0.000000464
69,8938,169,18.8,4.34652e-06,0.000000464
69.5,8938,171,18.8,4.39078e-06,0.000000464
70,8938,173,18.8,4.43511e-06,0.000000464
70.5,8938,175,18.8,4.47951e-06,0.000000464
71,8938,176,18.8,4.52397e-06,0.000000464
71.5,8938,178,18.8,4.5685e-06,0.000000464
72,8938,180,18.9,4.6131e-06,0.000000464
72.5,8938,182,18.9,4.65775e-06,0.000000464
73,8938,183,18.9,4.70246e-06,0.000000464
73.5,8938,185,18.9,4.74723e-06,0.000000464
74,8938,186,18.9,4.79206e-06,0.000000464
74.5,8938,188,18.9,4.83693e-06,0.000000464
75,8938,190,18.9,4.88186e-06,0.000000464
75.5,8938,191,18.9,4.92683e-06,0.000000464
76,8938,193,19,4.97186e-06,0.000000464
76.5,8938,194,19,5.01692e-06,0.000000465
77,8938,196,19,5.06203e-06,0.000000465
77.5,8938,198,19,5.10718e-06,0.000000465
78,8938,199,19,5.15237e-06,0.000000465
78.5,8938,201,19,5.19759e-06,0.000000465
79,8938,202,19,5.24285e-06,0.000000465
79.5,8938,203,19,5.28815e-06,0.000000465
80,8938,205,19.1,5.33347e-06,0.000000465
80.5,8938,207,19.1,5.37882e-06,0.000000465
81,8938,208,19.1,5.4242e-06,0.000000465
81.5,8938,210,19.1,5.46961e-06,0.000000465
82,8938,211,19.1,5.51504e-06,0.000000465
82.5,8938,213,19.1,5.56049e-06,0.000000465
83,8938,214,19.2,5.60596e-06,0.000000465
83.5,8938,215,19.2,5.65144e-06,0.000000465
84,8938,217,19.2,5.69695e-06,0.000000465
84.5,8938,218,19.2,5.74246e-06,0.000000465
85,8938,220,19.3,5.78799e-06,0.000000466
85.5,8938,221,19.3,5.83354e-06,0.000000466
86,8938,222,19.3,5.87908e-06,0.000000466
86.5,8938,224,19.3,5.92464e-06,0.000000466
87,8938,225,19.4,5.9702e-06,0.000000466
87.5,8938,226,19.4,6.01577e-06,0.000000466
88,8938,227,19.4,6.06133e-06,0.000000466
88.5,8938,229,19.4,6.1069e-06,0.000000466
89,8938,230,19.5,6.15246e-06,0.000000466
89.5,8938,231,19.5,6.19802e-06,0.000000466
90,8938,232,19.5,6.24358e-06,0.000000466
90.5,8938,233,19.5,6.28912e-06,0.000000466
91,8938,234,19.5,6.33466e-06,0.000000466
91.5,8938,235,19.6,6.38019e-06,0.000000466
92,8938,236,19.6,6.42571e-06,0.000000466
92.5,8938,236,19.6,6.47121e-06,0.000000466
93,8938,237,19.6,6.51669e-06,0.000000466
93.5,8938,238,19.7,6.56216e-06,0.000000466
94,8938,239,19.7,6.60761e-06,0.000000466
94.5,8938,239,19.7,6.65304e-06,0.000000466
95,8938,240,19.7,6.69845e-06,0.000000466
95.5,8938,240,19.8,6.74383e-06,0.000000467
96,8938,241,19.8,6.78918e-06,0.000000467
96.5,8938,242,19.8,6.83451e-06,0.000000467
97,8938,242,19.8,6.87981e-06,0.000000467
97.5,8938,243,19.9,6.92508e-06,0.000000467
98,8938,243,19.9,6.97032e-06,0.000000467
98.5,8938,244,19.9,7.01553e-06,0.000000467
99,8938,244,19.9,7.0607e-06,0.000000467
99.5,8938,244,20,7.10583e-06,0.000000467
100,8938,245,20,7.15092e-06,0.000000467
100.5,8938,246,20,7.19598e-06,0.000000467
101,8938,246,20,7.24099e-06,0.000000467
101.5,8938,247,20.1,7.28596e-06,0.000000467
102,8938,248,20.1,7.33088e-06,0.000000467
102.5,8938,249,20.1,7.37576e-06,0.000000467
103,8938,249,20.1,7.42059e-06,0.000000467
103.5,8938,250,20.2,7.46538e-06,0.000000467
104,8938,251,20.2,7.51011e-06,0.000000467
104.5,8938,251,20.2,7.55479e-06,0.000000468
105,8938,252,20.2,7.59941e-06,0.000000468
105.5,8938,253,20.2,7.64398e-06,0.000000468
106,8938,254,20.3,7.6885e-06,0.000000468
106.5,8938,254,20.3,7.73296e-06,0.000000468
107,8938,255,20.3,7.77735e-06,0.000000468
107.5,8938,256,20.3,7.82169e-06,0.000000468
108,8938,257,20.3,7.86597e-06,0.000000468
108.5,8938,258,20.4,7.91018e-06,0.000000468
109,8938,258,20.4,7.95432e-06,0.000000468
109.5,8938,259,20.4,7.9984e-06,0.000000468
110,8938,260,20.4,8.04241e-06,0.000000468
110.5,8938,261,20.4,8.08636e-06,0.000000468
111,8938,261,20.5,8.13023e-06,0.000000468
111.5,8938,262,20.5,8.17403e-06,0.000000468
112,8938,263,20.5,8.21776e-06,0.000000468
112.5,8938,264,20.5,8.26141e-06,0.000000469
113,8938,265,20.5,8.30499e-06,0.000000469
113.5,8938,265,20.6,8.34849e-06,0.000000469
114,8938,266,20.6,8.39191e-06,0.000000469
114.5,8938,267,20.6,8.43525e-06,0.000000469
115,8938,268,20.6,8.47851e-06,0.000000469
115.5,8938,269,20.6,8.52169e-06,0.000000469
116,8938,269,20.6,8.56478e-06,0.000000469
116.5,8938,270,20.7,8.60779e-06,0.000000469
117,8938,271,20.7,8.65071e-06,0.000000469
117.5,8938,272,20.7,8.69355e-06,0.000000469
118,8938,273,20.7,8.7363e-06,0.000000469
118.5,8938,273,20.7,8.77895e-06,0.000000469
119,8938,274,20.8,8.82152e-06,0.000000469
119.5,8938,275,20.8,8.86399e-06,0.000000469
120,8938,276,20.8,8.90637e-06,0.00000047
120.5,8938,277,20.8,8.94865e-06,0.00000047
121,8938,277,20.8,8.99084e-06,0.00000047
121.5,8938,278,20.8,9.03293e-06,0.00000047
122,8938,279,20.8,9.07493e-06,0.00000047
122.5,8938,280,20.9,9.11682e-06,0.00000047
123,8938,281,20.9,9.15861e-06,0.00000047
123.5,8938,281,20.9,9.2003e-06,0.00000047
124,8938,282,20.9,9.24189e-06,0.00000047
124.5,8938,283,20.9,9.28338e-06,0.00000047
125,8938,284,20.9,9.32476e-06,0.00000047
125.5,8938,285,21,9.36603e-06,0.00000047
126,8938,286,21,9.40719e-06,0.00000047
126.5,8938,286,21,9.44825e-06,0.00000047
127,8938,287,21,9.4892e-06,0.000000471
127.5,8938,288,21,9.53003e-06,0.000000471
128,8938,289,21,9.57076e-06,0.000000471
128.5,8938,290,21,9.61137e-06,0.000000471
129,8938,290,21.1,9.65186e-06,0.000000471
129.5,8938,291,21.1,9.69225e-06,0.000000471
130,8938,292,21.1,9.73251e-06,0.000000471
130.5,8938,293,21.1,9.77266e-06,0.000000471
131,8938,294,21.1,9.8127e-06,0.000000471
131.5,8938,295,21.1,9.85261e-06,0.000000471
132,8938,295,21.1,9.8924e-06,0.000000471
132.5,8938,296,21.2,9.93207e-06,0.000000471
133,8938,297,21.2,9.97162e-06,0.000000471
133.5,8938,298,21.2,1.0011e-05,0.000000472
134,8938,299,21.2,1.00504e-05,0.000000472
134.5,8938,299,21.2,1.00895e-05,0.000000472
135,8938,300,21.2,1.01286e-05,0.000000472
135.5,8938,301,21.2,1.01675e-05,0.000000472
136,8938,302,21.3,1.02063e-05,0.000000472
136.5,8938,303,21.3,1.0245e-05,0.000000472
137,8938,303,21.3,1.02835e-05,0.000000472
137.5,8938,304,21.3,1.03219e-05,0.000000472
138,8938,305,21.3,1.03602e-05,0.000000472
138.5,8938,306,21.3,1.03983e-05,0.000000472
139,8938,307,21.3,1.04364e-05,0.000000472
139.5,8938,307,21.3,1.04742e-05,0.000000472
140,8938,308,21.4,1.0512e-05,0.000000472
140.5,8938,309,21.4,1.05496e-05,0.000000473
141,8938,310,21.4,1.05871e-05,0.000000473
141.5,8938,310,21.4,1.06244e-05,0.000000473
142,8938,311,21.4,1.06616e-05,0.000000473
142.5,8938,312,21.4,1.06987e-05,0.000000473
143,8938,313,21.4,1.07356e-05,0.000000473
143.5,8938,313,21.4,1.07723e-05,0.000000473
144,8938,314,21.5,1.0809e-05,0.000000473
144.5,8938,315,21.5,1.08455e-05,0.000000473
145,8938,316,21.5,1.08818e-05,0.000000473
145.5,8938,316,21.5,1.0918e-05,0.000000473
146,8938,317,21.5,1.09541e-05,0.000000473
146.5,8938,318,21.5,1.099e-05,0.000000473
147,8938,319,21.5,1.10258e-05,0.000000474
147.5,8938,319,21.5,1.10614e-05,0.000000474
148,8938,320,21.6,1.10969e-05,0.000000474
148.5,8938,321,21.6,1.11322e-05,0.000000474
149,8938,322,21.6,1.11674e-05,0.000000474
149.5,8938,322,21.6,1.12024e-05,0.000000474
150,8938,323,21.6,1.12373e-05,0.000000474
150.5,8938,324,21.6,1.12721e-05,0.000000474
151,8938,324,21.6,1.13066e-05,0.000000474
151.5,8938,324,21.6,1.13411e-05,0.000000474
152,8938,325,21.7,1.13753e-05,0.000000474
152.5,8938,325,21.7,1.14095e-05,0.000000474
153,8938,326,21.7,1.14434e-05,0.000000474
153.5,8938,326,21.7,1.14772e-05,0.000000474
154,8938,327,21.7,1.15109e-05,0.000000475
154.5,8938,327,21.7,1.15444e-05,0.000000475
155,8938,328,21.7,1.15777e-05,0.000000475
155.5,8938,328,21.7,1.16109e-05,0.000000475
156,8938,329,21.8,1.1644e-05,0.000000475
156.5,8938,329,21.8,1.16768e-05,0.000000475
157,8938,330,21.8,1.17096e-05,0.000000475
157.5,8938,330,21.8,1.17421e-05,0.000000475
158,8938,331,21.8,1.17745e-05,0.000000475
158.5,8938,331,21.8,1.18067e-05,0.000000475
159,8938,331,21.8,1.18388e-05,0.000000475
159.5,8938,332,21.9,1.18707e-05,0.000000475
160,8938,332,21.9,1.19025e-05,0.000000475
160.5,8938,333,21.9,1.19341e-05,0.000000475
161,8938,333,21.9,1.19655e-05,0.000000475
161.5,8938,333,21.9,1.19968e-05,0.000000475
162,8938,334,21.9,1.20279e-05,0.000000475
162.5,8938,334,21.9,1.20588e-05,0.000000476
163,8938,335,21.9,1.20896e-05,0.000000476
163.5,8938,335,22,1.21202e-05,0.000000476
164,8938,335,22,1.21506e-05,0.000000476
164.5,8938,336,22,1.21809e-05,0.000000476
165,8938,336,22,1.2211e-05,0.000000476
165.5,8938,337,22,1.22409e-05,0.000000476
166,8938,337,22,1.22707e-05,0.000000476
166.5,8938,337,22,1.23003e-05,0.000000476
167,8938,338,22,1.23297e-05,0.000000476
167.5,8938,338,22.1,1.2359e-05,0.000000476
168,8938,338,22.1,1.23881e-05,0.000000476
168.5,8938,339,22.1,1.24171e-05,0.000000476
169,8938,339,22.1,1.24458e-05,0.000000476
169.5,8938,340,22.1,1.24744e-05,0.000000476
170,8938,340,22.1,1.25028e-05,0.000000476
170.5,8938,340,22.1,1.25311e-05,0.000000477
171,8938,341,22.1,1.25592e-05,0.000000477
171.5,8938,341,22.2,1.25871e-05,0.000000477
172,8938,341,22.2,1.26148e-05,0.000000477
172.5,8938,342,22.2,1.26424e-05,0.000000477
173,8938,342,22.2,1.26698e-05,0.000000477
173.5,8938,342,22.2,1.2697e-05,0.000000477
174,8938,343,22.2,1.2724e-05,0.000000477
174.5,8938,343,22.2,1.27509e-05,0.000000477
175,8938,343,22.2,1.27776e-05,0.000000477
175.5,8938,344,22.2,1.28042e-05,0.000000477
176,8938,344,22.3,1.28305e-05,0.000000477
176.5,8938,344,22.3,1.28567e-05,0.000000477
177,8938,344,22.3,1.28827e-05,0.000000477
177.5,8938,345,22.3,1.29086e-05,0.000000477
178,8938,345,22.3,1.29342e-05,0.000000477
178.5,8938,345,22.3,1.29597e-05,0.000000477
179,8938,346,22.3,1.2985e-05,0.000000478
179.5,8938,346,22.3,1.30102e-05,0.000000478
180,8938,346,22.4,1.30351e-05,0.000000478
180.5,8938,347,22.4,1.30599e-05,0.000000478
181,8938,347,22.4,1.30845e-05,0.000000478
181.5,8938,347,22.4,1.3109e-05,0.000000478
182,8938,347,22.4,1.31332e-05,0.000000478
182.5,8938,348,22.4,1.31573e-05,0.000000478
183,8938,348,22.4,1.31813e-05,0.000000478
183.5,8938,348,22.4,1.3205e-05,0.000000478
184,8938,349,22.4,1.32286e-05,0.000000478
184.5,8938,349,22.5,1.32519e-05,0.000000478
185,8938,349,22.5,1.32752e-05,0.000000478
185.5,8938,349,22.5,1.32982e-05,0.000000478
186,8938,350,22.5,1.3321e-05,0.000000478
186.5,8938,350,22.5,1.33437e-05,0.000000478
187,8938,350,22.5,1.33662e-05,0.000000478
187.5,8938,350,22.5,1.33886e-05,0.000000479
188,8938,351,22.5,1.34107e-05,0.000000479
188.5,8938,351,22.5,1.34327e-05,0.000000479
189,8938,351,22.6,1.34545e-05,0.000000479
189.5,8938,351,22.6,1.34761e-05,0.000000479
190,8938,352,22.6,1.34976e-05,0.000000479
190.5,8938,352,22.6,1.35189e-05,0.000000479
191,8938,352,22.6,1.354e-05,0.000000479
191.5,8938,352,22.6,1.35609e-05,0.000000479
192,8938,353,22.6,1.35816e-05,0.000000479
192.5,8938,353,22.6,1.36022e-05,0.000000479
193,8938,353,22.6,1.36226e-05,0.000000479
193.5,8938,353,22.7,1.36428e-05,0.000000479
194,8938,353,22.7,1.36629e-05,0.000000479
194.5,8938,354,22.7,1.36827e-05,0.000000479
195,8938,354,22.7,1.37024e-05,0.000000479
195.5,8938,354,22.7,1.3722e-05,0.000000479
196,8938,354,22.7,1.37413e-05,0.00000048
196.5,8938,355,22.7,1.37605e-05,0.00000048
197,8938,355,22.7,1.37795e-05,0.00000048
197.5,8938,355,22.7,1.37983e-05,0.00000048
198,8938,355,22.8,1.38169e-05,0.00000048
198.5,8938,355,22.8,1.38354e-05,0.00000048
199,8938,356,22.8,1.38537e-05,0.00000048
199.5,8938,356,22.8,1.38718e-05,0.00000048
200,8938,356,22.8,1.38898e-05,0.00000048
200.5,8938,356,22.8,1.39076e-05,0.00000048
201,8938,356,22.8,1.39252e-05,0.00000048
201.5,8938,357,22.8,1.39426e-05,0.00000048
202,8938,357,22.8,1.39598e-05,0.00000048
202.5,8938,357,22.9,1.39769e-05,0.00000048
203,8938,357,22.9,1.39938e-05,0.00000048
203.5,8938,358,22.9,1.40106e-05,0.00000048
204,8938,358,22.9,1.40272e-05,0.00000048
204.5,8938,358,22.9,1.40436e-05,0.000000481
205,8938,358,22.9,1.40598e-05,0.000000481
205.5,8938,359,22.9,1.40758e-05,0.000000481
206,8938,359,22.9,1.40917e-05,0.000000481
206.5,8938,359,22.9,1.41074e-05,0.000000481
207,8938,359,23,1.4123e-05,0.000000481
207.5,8938,359,23,1.41384e-05,0.000000481
208,8938,360,23,1.41536e-05,0.000000481
208.5,8938,360,23,1.41686e-05,0.000000481
209,8938,360,23,1.41835e-05,0.000000481
209.5,8938,360,23,1.41982e-05,0.000000481
210,8938,360,23,1.42127e-05,0.000000481
210.5,8938,361,23,1.42271e-05,0.000000481
211,8938,361,23,1.42413e-05,0.000000481
211.5,8938,361,23.1,1.42553e-05,0.000000481
212,8938,361,23.1,1.42692e-05,0.000000481
212.5,8938,362,23.1,1.42829e-05,0.000000481
213,8938,362,23.1,1.42964e-05,0.000000482
213.5,8938,362,23.1,1.43098e-05,0.000000482
214,8938,362,23.1,1.4323e-05,0.000000482
214.5,8938,362,23.1,1.4336e-05,0.000000482
215,8938,363,23.1,1.43489e-05,0.000000482
215.5,8938,363,23.1,1.43616e-05,0.000000482
216,8938,363,23.2,1.43742e-05,0.000000482
216.5,8938,363,23.2,1.43866e-05,0.000000482
217,8938,363,23.2,1.43988e-05,0.000000482
217.5,8938,363,23.2,1.44108e-05,0.000000482
218,8938,364,23.2,1.44228e-05,0.000000482
218.5,8938,364,23.2,1.44345e-05,0.000000482
219,8938,364,23.2,1.44461e-05,0.000000482
219.5,8938,364,23.2,1.44575e-05,0.000000482
220,8938,364,23.2,1.44688e-05,0.000000482
220.5,8938,365,23.3,1.44799e-05,0.000000482
221,8938,365,23.3,1.44909e-05,0.000000482
221.5,8938,365,23.3,1.45017e-05,0.000000483
222,8938,365,23.3,1.45123e-05,0.000000483
222.5,8938,365,23.3,1.45228e-05,0.000000483
223,8938,366,23.3,1.45331e-05,0.000000483
223.5,8938,366,23.3,1.45433e-05,0.000000483
224,8938,366,23.3,1.45533e-05,0.000000483
224.5,8938,366,23.3,1.45632e-05,0.000000483
225,8938,366,23.3,1.45729e-05,0.000000483
225.5,8938,366,23.4,1.45825e-05,0.000000483
226,8938,367,23.4,1.45919e-05,0.000000483
226.5,8938,367,23.4,1.46011e-05,0.000000483
227,8938,367,23.4,1.46103e-05,0.000000483
227.5,8938,367,23.4,1.46192e-05,0.000000483
228,8938,367,23.4,1.4628e-05,0.000000483
228.5,8938,367,23.4,1.46367e-05,0.000000483
229,8938,368,23.4,1.46452e-05,0.000000483
229.5,8938,368,23.4,1.46536e-05,0.000000483
230,8938,368,23.4,1.46618e-05,0.000000484
230.5,8938,368,23.5,1.46699e-05,0.000000484
231,8938,368,23.5,1.46779e-05,0.000000484
231.5,8938,368,23.5,1.46857e-05,0.000000484
232,8938,369,23.5,1.46933e-05,0.000000484
232.5,8938,369,23.5,1.47008e-05,0.000000484
233,8938,369,23.5,1.47082e-05,0.000000484
233.5,8938,369,23.5,1.47154e-05,0.000000484
234,8938,369,23.5,1.47225e-05,0.000000484
234.5,8938,369,23.5,1.47295e-05,0.000000484
235,8938,370,23.5,1.47363e-05,0.000000484
235.5,8938,370,23.6,1.4743e-05,0.000000484
236,8938,370,23.6,1.47495e-05,0.000000484
236.5,8938,370,23.6,1.47559e-05,0.000000484
237,8938,370,23.6,1.47622e-05,0.000000484
237.5,8938,370,23.6,1.47684e-05,0.000000484
238,8938,371,23.6,1.47744e-05,0.000000485
238.5,8938,371,23.6,1.47802e-05,0.000000485
239,8938,371,23.6,1.4786e-05,0.000000485
239.5,8938,371,23.6,1.47916e-05,0.000000485
240,8938,371,23.6,1.47971e-05,0.000000485
240.5,8938,371,23.6,1.48024e-05,0.000000485
241,8938,371,23.6,1.48077e-05,0.000000485
241.5,8938,372,23.7,1.48128e-05,0.000000485
242,8938,372,23.7,1.48178e-05,0.000000485
242.5,8938,372,23.7,1.48226e-05,0.000000485
243,8938,372,23.7,1.48273e-05,0.000000485
243.5,8938,372,23.7,1.4832e-05,0.000000485
244,8938,372,23.7,1.48364e-05,0.000000485
244.5,8938,372,23.7,1.48408e-05,0.000000485
245,8938,373,23.7,1.48451e-05,0.000000485
245.5,8938,373,23.7,1.48492e-05,0.000000485
246,8938,373,23.7,1.48532e-05,0.000000485
246.5,8938,373,23.7,1.48571e-05,0.000000486
247,8938,373,23.8,1.48609e-05,0.000000486
247.5,8938,373,23.8,1.48645e-05,0.000000486
248,8938,373,23.8,1.48681e-05,0.000000486
248.5,8938,374,23.8,1.48715e-05,0.000000486
249,8938,374,23.8,1.48749e-05,0.000000486
249.5,8938,374,23.8,1.48781e-05,0.000000486
250,8938,374,23.8,1.48812e-05,0.000000486
250.5,8938,374,23.8,1.48842e-05,0.000000486
251,8938,374,23.8,1.48871e-05,0.000000486
251.5,8938,374,23.8,1.48899e-05,0.000000486
252,8938,375,23.8,1.48925e-05,0.000000486
252.5,8938,375,23.8,1.48951e-05,0.000000486
253,8938,375,23.8,1.48976e-05,0.000000486
253.5,8938,375,23.8,1.49e-05,0.000000486
254,8938,375,23.8,1.49023e-05,0.000000487
254.5,8938,375,23.8,1.49044e-05,0.000000487
255,8938,375,23.9,1.49065e-05,0.000000487
255.5,8938,376,23.9,1.49085e-05,0.000000487
256,8938,376,23.9,1.49104e-05,0.000000487
256.5,8938,376,23.9,1.49122e-05,0.000000487
257,8938,376,23.9,1.49139e-05,0.000000487
257.5,8938,376,23.9,0.00001491547,0.000000487
258,8938,376,23.9,1.4917e-05,0.000000487
258.5,8938,376,23.9,1.49184e-05,0.000000487
259,8938,376,23.9,1.49198e-05,0.000000487
259.5,8938,377,23.9,1.4921e-05,0.000000487
260,8938,377,23.9,1.49222e-05,0.000000487
260.5,8938,377,23.9,1.49232e-05,0.000000487
261,8938,377,23.9,1.49242e-05,0.000000487
261.5,8938,377,23.9,1.49252e-05,0.000000488
262,8938,377,23.9,1.4926e-05,0.000000488
262.5,8938,377,23.9,1.49268e-05,0.000000488
263,8938,378,23.9,1.49274e-05,0.000000488
263.5,8938,378,24,1.4928e-05,0.000000488
264,8938,378,24,1.49286e-05,0.000000488
264.5,8938,378,24,1.4929e-05,0.000000488
265,8938,378,24,1.49294e-05,0.000000488
265.5,8938,378,24,1.49297e-05,0.000000488
266,8938,378,24,1.49299e-05,0.000000488
266.5,8938,378,24,1.49301e-05,0.000000488
267,8938,379,24,1.49302e-05,0.000000488
267.5,8938,379,24,1.49303e-05,0.000000488
268,8938,379,24,1.49302e-05,0.000000488
268.5,8938,379,24,1.49301e-05,0.000000488
269,8938,379,24,1.493e-05,0.000000488
269.5,8938,379,24,1.49298e-05,0.000000489
270,8938,379,24,1.49295e-05,0.000000489
270.5,8938,379,24.1,1.49292e-05,0.000000489
271,8938,380,24.1,1.49288e-05,0.000000489
271.5,8938,380,24.1,1.49284e-05,0.000000489
272,8938,380,24.1,1.49279e-05,0.000000489
272.5,8938,380,24.1,1.49273e-05,0.000000489
273,8938,380,24.1,1.49267e-05,0.000000489
273.5,8938,380,24.1,1.49261e-05,0.000000489
274,8938,380,24.1,1.49254e-05,0.000000489
274.5,8938,380,24.1,1.49247e-05,0.000000489
275,8938,380,24.1,1.49239e-05,0.000000489
275.5,8938,381,24.1,1.49231e-05,0.000000489
276,8938,381,24.2,1.49222e-05,0.000000489
276.5,8938,381,24.2,1.49213e-05,0.000000489
277,8938,381,24.2,1.49204e-05,0.000000489
277.5,8938,381,24.2,1.49194e-05,0.00000049
278,8938,381,24.2,1.49184e-05,0.00000049
278.5,8938,381,24.2,1.49174e-05,0.00000049
279,8938,381,24.2,1.49163e-05,0.00000049
279.5,8938,382,24.2,1.49152e-05,0.00000049
280,8938,382,24.2,1.49141e-05,0.00000049
280.5,8938,382,24.3,1.49141e-05,0.00000049
281,8938,382,24.3,1.49141e-05,0.00000049
281.5,8938,382,24.3,1.49141e-05,0.00000049
282,8938,382,24.3,1.49141e-05,0.00000049
282.5,8938,382,24.3,1.49141e-05,0.00000049
283,8938,382,24.3,1.49141e-05,0.00000049
283.5,8938,382,24.3,1.49141e-05,0.00000049
284,8938,383,24.3,1.49141e-05,0.00000049
284.5,8938,383,24.4,1.49141e-05,0.00000049
285,8938,383,24.4,1.49141e-05,0.00000049
285.5,8938,383,24.4,1.49141e-05,0.00000049
286,8938,383,24.4,1.49141e-05,0.000000491
286.5,8938,383,24.4,1.49141e-05,0.000000491
287,8938,383,24.4,1.49141e-05,0.000000491
287.5,8938,383,24.4,1.49141e-05,0.000000491
288,8938,383,24.5,1.49141e-05,0.000000491
288.5,8938,384,24.5,1.49141e-05,0.000000491
289,8938,384,24.5,1.49141e-05,0.000000491
289.5,8938,384,24.5,1.49141e-05,0.000000491
290,8938,384,24.5,1.49141e-05,0.000000491
290.5,8938,384,24.5,1.49141e-05,0.000000491
291,8938,384,24.6,1.49141e-05,0.000000491
291.5,8938,384,24.6,1.49141e-05,0.000000491
292,8938,384,24.6,1.49141e-05,0.000000491
292.5,8938,384,24.6,1.49141e-05,0.000000491
293,8938,385,24.6,1.49141e-05,0.000000491
293.5,8938,385,24.6,1.49141e-05,0.000000491
294,8938,385,24.7,1.49141e-05,0.000000491
294.5,8938,385,24.7,1.49141e-05,0.000000491
295,8938,385,24.7,1.49141e-05,0.000000492
295.5,8938,385,24.7,1.49141e-05,0.000000492
296,8938,385,24.7,1.49141e-05,0.000000492
296.5,8938,385,24.8,1.49141e-05,0.000000492
297,8938,385,24.8,1.49141e-05,0.000000492
297.5,8938,385,24.8,1.49141e-05,0.000000492
298,8938,386,24.8,1.49141e-05,0.000000492
298.5,8938,386,24.8,1.49141e-05,0.000000492
299,8938,386,24.9,1.49141e-05,0.000000492
299.5,8938,386,24.9,1.49141e-05,0.000000492
300,8938,386,24.9,1.49141e-05,0.000000492