File: SolidProps/lib/COPPER_ZINC_90_10.csv
T/K,rho/(kg/m3),cp/(J/(kg.K)),K/(W/(m.K)),alpha_thermal/(1/K),resistivity/(ohm.m)
1,8802,0.0111,1.11,0,0.0000000211
1.5,8802,0.0196,1.85,0,0.0000000211
2,8802,0.0293,2.68,0,0.0000000211
2.5,8802,0.0409,3.58,0,0.0000000211
3,8802,0.0554,4.53,0,0.0000000211
3.5,8802,0.0736,5.53,0,0.0000000211
4,8802,0.0964,6.57,0,0.0000000211
4.5,8802,0.125,7.65,0,0.0000000211
5,8802,0.161,8.56,0,0.0000000211
5.5,8802,0.205,9.54,0,0.0000000211
6,8802,0.256,10.5,0,0.0000000211
6.5,8802,0.316,11.5,0,0.0000000211
7,8802,0.386,12.5,0,0.0000000211
7.5,8802,0.466,13.5,0,0.0000000211
8,8802,0.557,14.5,0,0.0000000211
8.5,8802,0.66,15.5,0,0.0000000211
9,8802,0.775,16.5,0,0.0000000211
9.5,8802,0.919,17.4,0,0.0000000211
10,8802,1.05,18.5,0,0.0000000211
10.5,8802,1.19,19.6,0,0.000000021
11,8802,1.34,20.8,0,0.000000021
11.5,8802,1.52,21.9,5.16524e-08,0.000000021
12,8802,1.71,23.1,1.01652e-07,0.000000021
12.5,8802,1.91,24.2,1.16436e-07,0.000000021
13,8802,2.14,25.4,1.33293e-07,0.000000021
13.5,8802,2.39,26.6,1.52181e-07,0.000000021
14,8802,2.66,27.8,1.7306e-07,0.000000021
14.5,8802,2.95,29,1.95886e-07,0.000000021
15,8802,3.27,30.2,2.20621e-07,0.000000021
15.5,8802,3.61,31.4,2.47223e-07,0.000000021
16,8802,3.98,32.6,2.75653e-07,0.000000021
16.5,8802,4.37,33.8,3.05871e-07,0.000000021
17,8802,4.79,34.9,3.37838e-07,0.000000021
17.5,8802,5.25,36.1,3.71516e-07,0.000000021
18,8802,5.73,37.3,4.06868e-07,0.000000021
18.5,8802,6.25,38.5,4.43854e-07,0.000000021
19,8802,6.8,39.7,4.82439e-07,0.000000021
19.5,8802,7.28,40.9,5.22586e-07,0.000000021
20,8802,8,42,5.64258e-07,0.000000021
20.5,8802,8.76,43.1,6.0742e-07,0.000000021
21,8802,9.55,44.1,6.52037e-07,0.000000021
21.5,8802,10.4,45.2,6.98073e-07,0.000000021
22,8802,11.2,46.2,7.45494e-07,0.000000021
22.5,8802,12.1,47.3,7.94266e-07,0.000000021
23,8802,13.1,48.3,8.44356e-07,0.000000021
23.5,8802,14,49.3,8.9573e-07,0.000000021
24,8802,15,50.2,9.48356e-07,0.000000021
24.5,8802,16.1,51.2,1.0022e-06,0.000000021
25,8802,17.1,52.2,1.05723e-06,0.0000000211
25.5,8802,18.2,53.1,1.11342e-06,0.0000000211
26,8802,19.4,54,1.17073e-06,0.0000000211
26.5,8802,20.5,54.9,1.22914e-06,0.0000000211
27,8802,21.7,55.8,1.28861e-06,0.0000000211
27.5,8802,23,56.7,1.34911e-06,0.0000000211
28,8802,24.2,57.6,1.41062e-06,0.0000000211
28.5,8802,25.5,58.4,1.47311e-06,0.0000000211
29,8802,26.9,59.2,1.53654e-06,0.0000000211
29.5,8802,28.2,60.1,1.60088e-06,0.0000000211
30,8802,29.6,60.8,1.66612e-06,0.0000000212
30.5,8802,31,61.5,1.73222e-06,0.0000000212
31,8802,32.5,62.2,1.79916e-06,0.0000000212
31.5,8802,34,62.8,1.8669e-06,0.0000000212
32,8802,35.5,63.5,1.93543e-06,0.0000000212
32.5,8802,37,64.1,2.00471e-06,0.0000000212
33,8802,38.6,64.7,2.07472e-06,0.0000000212
33.5,8802,40.1,65.3,2.14544e-06,0.0000000213
34,8802,41.8,65.9,2.21683e-06,0.0000000213
34.5,8802,43.4,66.5,2.28889e-06,0.0000000213
35,8802,45.1,67,2.36157e-06,0.0000000213
35.5,8802,46.8,67.6,2.43486e-06,0.0000000213
36,8802,48.5,68.1,2.50873e-06,0.0000000213
36.5,8802,50.2,68.6,2.58316e-06,0.0000000214
37,8802,52,69.1,2.65813e-06,0.0000000214
37.5,8802,53.8,69.6,2.73362e-06,0.0000000214
38,8802,55.6,70.1,2.80959e-06,0.0000000214
38.5,8802,57.4,70.6,2.88604e-06,0.0000000214
39,8802,59.3,71.1,2.96294e-06,0.0000000215
39.5,8802,61.1,71.5,3.04026e-06,0.0000000215
40,8802,63.1,72,3.11799e-06,0.0000000215
40.5,8802,65,72.5,3.19611e-06,0.0000000215
41,8802,67,73,3.27459e-06,0.0000000215
41.5,8802,69.1,73.4,3.35342e-06,0.0000000216
42,8802,71.1,73.9,3.43257e-06,0.0000000216
42.5,8802,73.2,74.3,3.51203e-06,0.0000000216
43,8802,75.2,74.8,3.59178e-06,0.0000000216
43.5,8802,77.3,75.2,3.6718e-06,0.0000000217
44,8802,79.4,75.7,3.75207e-06,0.0000000217
44.5,8802,81.5,76.1,3.83257e-06,0.0000000217
45,8802,83.6,76.5,3.91329e-06,0.0000000217
45.5,8802,85.7,77,3.9942e-06,0.0000000218
46,8802,87.8,77.4,4.07529e-06,0.0000000218
46.5,8802,89.9,77.8,4.15655e-06,0.0000000218
47,8802,92.1,78.2,4.23796e-06,0.0000000218
47.5,8802,94.2,78.6,4.31949e-06,0.0000000219
48,8802,96.3,79,4.40114e-06,0.0000000219
48.5,8802,98.4,79.4,4.48289e-06,0.0000000219
49,8802,101,79.8,4.56472e-06,0.0000000219
49.5,8802,103,80.2,4.64662e-06,0.000000022
50,8802,105,80.6,4.72857e-06,0.000000022
50.5,8802,107,81,4.81056e-06,0.000000022
51,8802,109,81.4,4.89258e-06,0.0000000221
51.5,8802,111,81.8,4.9746e-06,0.0000000221
52,8802,113,82.2,5.05662e-06,0.0000000221
52.5,8802,114,82.5,5.13862e-06,0.0000000221
53,8802,116,82.9,5.2206e-06,0.0000000222
53.5,8802,118,83.3,5.30252e-06,0.0000000222
54,8802,120,83.7,5.38439e-06,0.0000000222
54.5,8802,122,84.1,5.46619e-06,0.0000000223
55,8802,124,84.4,5.54791e-06,0.0000000223
55.5,8802,126,84.8,5.62954e-06,0.0000000223
56,8802,128,85.2,5.71106e-06,0.0000000224
56.5,8802,130,85.5,5.79246e-06,0.0000000224
57,8802,131,85.9,5.87373e-06,0.0000000224
57.5,8802,133,86.3,5.95486e-06,0.0000000225
58,8802,135,86.6,6.03585e-06,0.0000000225
58.5,8802,137,87,6.11667e-06,0.0000000225
59,8802,139,87.3,6.19732e-06,0.0000000226
59.5,8802,141,87.7,6.27778e-06,0.0000000226
60,8802,143,88,6.35806e-06,0.0000000226
60.5,8802,144,88.4,6.43813e-06,0.0000000227
61,8802,146,88.8,6.518e-06,0.0000000227
61.5,8802,148,89.1,6.59764e-06,0.0000000227
62,8802,150,89.5,6.67705e-06,0.0000000228
62.5,8802,152,89.8,6.75622e-06,0.0000000228
63,8802,153,90.2,6.83515e-06,0.0000000228
63.5,8802,155,90.5,6.91382e-06,0.0000000229
64,8802,157,90.9,6.99223e-06,0.0000000229
64.5,8802,159,91.2,7.07036e-06,0.000000023
65,8802,161,91.6,7.14822e-06,0.000000023
65.5,8802,162,91.9,7.22578e-06,0.000000023
66,8802,164,92.2,7.30306e-06,0.0000000231
66.5,8802,166,92.6,7.38003e-06,0.0000000231
67,8802,168,92.9,7.45669e-06,0.0000000232
67.5,8802,169,93.3,7.53303e-06,0.0000000232
68,8802,171,93.6,7.60906e-06,0.0000000232
68.5,8802,173,93.9,7.68475e-06,0.0000000233
69,8802,175,94.3,7.76011e-06,0.0000000233
69.5,8802,176,94.6,7.83513e-06,0.0000000234
70,8802,178,94.9,7.9098e-06,0.0000000234
70.5,8802,180,95.2,7.98411e-06,0.0000000234
71,8802,181,95.5,8.05807e-06,0.0000000235
71.5,8802,183,95.8,8.13166e-06,0.0000000235
72,8802,184,96.1,0.000008204887,0.0000000235
72.5,8802,186,96.4,8.27774e-06,0.0000000236
73,8802,188,96.7,8.35021e-06,0.0000000236
73.5,8802,189,97,8.42229e-06,0.0000000237
74,8802,191,97.3,8.49399e-06,0.0000000237
74.5,8802,192,97.6,8.5653e-06,0.0000000237
75,8802,194,97.9,8.6362e-06,0.0000000238
75.5,8802,195,98.2,8.70671e-06,0.0000000238
76,8802,197,98.5,8.77681e-06,0.0000000239
76.5,8802,198,98.8,8.84651e-06,0.0000000239
77,8802,200,99,8.91579e-06,0.0000000239
77.5,8802,201,99.3,8.98465e-06,0.000000024
78,8802,203,99.6,9.05309e-06,0.000000024
78.5,8802,204,99.9,9.12112e-06,0.000000024
79,8802,206,100,9.18871e-06,0.0000000241
79.5,8802,207,100,9.25588e-06,0.0000000241
80,8802,209,101,9.32262e-06,0.0000000242
80.5,8802,210,101,9.38893e-06,0.0000000242
81,8802,212,101,9.45479e-06,0.0000000242
81.5,8802,213,102,9.52022e-06,0.0000000243
82,8802,214,102,9.58521e-06,0.0000000243
82.5,8802,216,102,9.64976e-06,0.0000000243
83,8802,217,103,9.71386e-06,0.0000000244
83.5,8802,219,103,9.77752e-06,0.0000000244
84,8802,220,103,9.84073e-06,0.0000000245
84.5,8802,221,104,9.90349e-06,0.0000000245
85,8802,223,104,9.9658e-06,0.0000000245
85.5,8802,224,104,1.00277e-05,0.0000000246
86,8802,225,105,1.00891e-05,0.0000000246
86.5,8802,227,105,1.015e-05,0.0000000246
87,8802,228,105,1.02105e-05,0.0000000247
87.5,8802,229,106,1.02705e-05,0.0000000247
88,8802,231,106,1.03301e-05,0.0000000248
88.5,8802,232,106,1.03892e-05,0.0000000248
89,8802,233,107,1.04479e-05,0.0000000248
89.5,8802,234,107,1.05061e-05,0.0000000249
90,8802,236,107,1.05639e-05,0.0000000249
90.5,8802,237,107,1.06211e-05,0.0000000249
91,8802,238,108,1.0678e-05,0.000000025
91.5,8802,239,108,1.07343e-05,0.000000025
92,8802,241,108,1.07903e-05,0.0000000251
92.5,8802,242,109,1.08457e-05,0.0000000251
93,8802,243,109,1.09007e-05,0.0000000251
93.5,8802,244,109,1.09552e-05,0.0000000252
94,8802,245,110,1.10093e-05,0.0000000252
94.5,8802,247,110,1.10629e-05,0.0000000253
95,8802,248,110,1.11161e-05,0.0000000253
95.5,8802,249,110,1.11688e-05,0.0000000253
96,8802,250,111,1.12211e-05,0.0000000254
96.5,8802,251,111,1.12729e-05,0.0000000254
97,8802,252,111,1.13242e-05,0.0000000255
97.5,8802,253,111,1.13751e-05,0.0000000255
98,8802,255,112,1.14256e-05,0.0000000255
98.5,8802,256,112,1.14756e-05,0.0000000256
99,8802,257,112,1.15251e-05,0.0000000256
99.5,8802,258,113,1.15742e-05,0.0000000257
100,8802,259,113,1.16229e-05,0.0000000257
100.5,8802,260,113,1.16711e-05,0.0000000257
101,8802,261,113,1.17189e-05,0.0000000258
101.5,8802,262,114,1.17662e-05,0.0000000258
102,8802,263,114,1.18131e-05,0.0000000259
102.5,8802,264,114,1.18596e-05,0.0000000259
103,8802,265,114,1.19056e-05,0.0000000259
103.5,8802,266,115,1.19512e-05,0.000000026
104,8802,267,115,1.19964e-05,0.000000026
104.5,8802,268,115,1.20411e-05,0.0000000261
105,8802,269,115,1.20854e-05,0.0000000261
105.5,8802,270,116,1.21293e-05,0.0000000261
106,8802,271,116,1.21728e-05,0.0000000262
106.5,8802,272,116,1.22158e-05,0.0000000262
107,8802,273,117,1.22584e-05,0.0000000263
107.5,8802,274,117,1.23007e-05,0.0000000263
108,8802,275,117,1.23425e-05,0.0000000263
108.5,8802,276,117,1.23838e-05,0.0000000264
109,8802,277,118,1.24248e-05,0.0000000264
109.5,8802,277,118,1.24654e-05,0.0000000264
110,8802,278,118,1.25056e-05,0.0000000265
110.5,8802,279,118,1.25453e-05,0.0000000265
111,8802,280,119,1.25847e-05,0.0000000266
111.5,8802,281,119,1.26237e-05,0.0000000266
112,8802,282,119,1.26623e-05,0.0000000266
112.5,8802,283,119,1.27005e-05,0.0000000267
113,8802,283,120,1.27383e-05,0.0000000267
113.5,8802,284,120,1.27758e-05,0.0000000268
114,8802,285,120,1.28128e-05,0.0000000268
114.5,8802,286,120,1.28495e-05,0.0000000268
115,8802,287,121,1.28858e-05,0.0000000269
115.5,8802,287,121,1.29217e-05,0.0000000269
116,8802,288,121,1.29573e-05,0.000000027
116.5,8802,289,121,1.29925e-05,0.000000027
117,8802,290,122,1.30273e-05,0.000000027
117.5,8802,290,122,1.30618e-05,0.0000000271
118,8802,291,122,1.30959e-05,0.0000000271
118.5,8802,292,122,1.31297e-05,0.0000000271
119,8802,293,123,1.31631e-05,0.0000000272
119.5,8802,293,123,1.31962e-05,0.0000000272
120,8802,294,123,1.32289e-05,0.0000000273
120.5,8802,295,123,1.32613e-05,0.0000000273
121,8802,295,124,1.32934e-05,0.0000000273
121.5,8802,296,124,1.33251e-05,0.0000000274
122,8802,297,124,1.33565e-05,0.0000000274
122.5,8802,297,124,1.33876e-05,0.0000000275
123,8802,298,125,1.34184e-05,0.0000000275
123.5,8802,299,125,1.34488e-05,0.0000000275
124,8802,299,125,1.34789e-05,0.0000000276
124.5,8802,300,125,1.35087e-05,0.0000000276
125,8802,301,126,1.35382e-05,0.0000000277
125.5,8802,301,126,1.35674e-05,0.0000000277
126,8802,302,126,1.35963e-05,0.0000000277
126.5,8802,302,126,1.36249e-05,0.0000000278
127,8802,303,127,1.36532e-05,0.0000000278
127.5,8802,304,127,1.36812e-05,0.0000000278
128,8802,304,127,1.37089e-05,0.0000000279
128.5,8802,305,127,1.37364e-05,0.0000000279
129,8802,305,127,1.37635e-05,0.000000028
129.5,8802,306,128,1.37904e-05,0.000000028
130,8802,307,128,1.3817e-05,0.000000028
130.5,8802,307,128,1.38433e-05,0.0000000281
131,8802,308,128,1.38694e-05,0.0000000281
131.5,8802,308,129,1.38952e-05,0.0000000281
132,8802,309,129,1.39207e-05,0.0000000282
132.5,8802,309,129,1.3946e-05,0.0000000282
133,8802,310,129,1.3971e-05,0.0000000283
133.5,8802,310,130,1.39958e-05,0.0000000283
134,8802,311,130,1.40203e-05,0.0000000283
134.5,8802,311,130,1.40446e-05,0.0000000284
135,8802,312,130,1.40687e-05,0.0000000284
135.5,8802,312,131,1.40925e-05,0.0000000285
136,8802,313,131,1.4116e-05,0.0000000285
136.5,8802,313,131,1.41394e-05,0.0000000285
137,8802,314,131,1.41625e-05,0.0000000286
137.5,8802,314,131,1.41854e-05,0.0000000286
138,8802,315,132,1.42081e-05,0.0000000286
138.5,8802,315,132,1.42306e-05,0.0000000287
139,8802,316,132,1.42528e-05,0.0000000287
139.5,8802,316,132,1.42749e-05,0.0000000288
140,8802,317,133,1.42967e-05,0.0000000288
140.5,8802,317,133,1.43183e-05,0.0000000288
141,8802,318,133,1.43398e-05,0.0000000289
141.5,8802,318,133,1.4361e-05,0.0000000289
142,8802,318,133,1.4382e-05,0.000000029
142.5,8802,319,134,1.44029e-05,0.000000029
143,8802,319,134,1.44236e-05,0.000000029
143.5,8802,320,134,1.4444e-05,0.0000000291
144,8802,320,134,1.44643e-05,0.0000000291
144.5,8802,321,135,1.44845e-05,0.0000000291
145,8802,321,135,1.45044e-05,0.0000000292
145.5,8802,321,135,1.45242e-05,0.0000000292
146,8802,322,135,1.45438e-05,0.0000000293
146.5,8802,322,135,1.45633e-05,0.0000000293
147,8802,323,136,1.45826e-05,0.0000000293
147.5,8802,323,136,1.46017e-05,0.0000000294
148,8802,323,136,1.46207e-05,0.0000000294
148.5,8802,324,136,1.46395e-05,0.0000000294
149,8802,324,137,1.46581e-05,0.0000000295
149.5,8802,324,137,1.46767e-05,0.0000000295
150,8802,325,137,1.46951e-05,0.0000000296
150.5,8802,325,137,1.47133e-05,0.0000000296
151,8802,326,137,1.47314e-05,0.0000000296
151.5,8802,326,138,1.47493e-05,0.0000000297
152,8802,327,138,1.47672e-05,0.0000000297
152.5,8802,327,138,1.47849e-05,0.0000000298
153,8802,327,138,1.48024e-05,0.0000000298
153.5,8802,328,139,1.48199e-05,0.0000000298
154,8802,328,139,1.48372e-05,0.0000000299
154.5,8802,329,139,1.48544e-05,0.0000000299
155,8802,329,139,1.48715e-05,0.0000000299
155.5,8802,329,139,1.48885e-05,0.00000003
156,8802,330,140,1.49053e-05,0.00000003
156.5,8802,330,140,1.49221e-05,0.0000000301
157,8802,331,140,1.49387e-05,0.0000000301
157.5,8802,331,140,1.49553e-05,0.0000000301
158,8802,331,141,1.49717e-05,0.0000000302
158.5,8802,332,141,1.4988e-05,0.0000000302
159,8802,332,141,1.50043e-05,0.0000000303
159.5,8802,333,141,1.50204e-05,0.0000000303
160,8802,333,141,1.50365e-05,0.0000000303
160.5,8802,333,142,1.50524e-05,0.0000000304
161,8802,334,142,1.50683e-05,0.0000000304
161.5,8802,334,142,1.50841e-05,0.0000000304
162,8802,334,142,1.50998e-05,0.0000000305
162.5,8802,335,143,1.51154e-05,0.0000000305
163,8802,335,143,1.51309e-05,0.0000000306
163.5,8802,335,143,1.51464e-05,0.0000000306
164,8802,336,143,1.51617e-05,0.0000000306
164.5,8802,336,143,1.5177e-05,0.0000000307
165,8802,336,144,1.51923e-05,0.0000000307
165.5,8802,337,144,1.52074e-05,0.0000000308
166,8802,337,144,1.52225e-05,0.0000000308
166.5,8802,338,144,1.52375e-05,0.0000000308
167,8802,338,144,1.52525e-05,0.0000000309
167.5,8802,338,145,1.52674e-05,0.0000000309
168,8802,339,145,1.52822e-05,0.0000000309
168.5,8802,339,145,1.5297e-05,0.000000031
169,8802,339,145,1.53117e-05,0.000000031
169.5,8802,339,146,1.53263e-05,0.0000000311
170,8802,340,146,1.53409e-05,0.0000000311
170.5,8802,340,146,1.53555e-05,0.0000000311
171,8802,340,146,1.537e-05,0.0000000312
171.5,8802,341,146,1.53844e-05,0.0000000312
172,8802,341,147,1.53988e-05,0.0000000312
172.5,8802,341,147,1.54131e-05,0.0000000313
173,8802,342,147,1.54274e-05,0.0000000313
173.5,8802,342,147,1.54416e-05,0.0000000314
174,8802,342,147,1.54558e-05,0.0000000314
174.5,8802,343,148,1.547e-05,0.0000000314
175,8802,343,148,1.54841e-05,0.0000000315
175.5,8802,343,148,1.54981e-05,0.0000000315
176,8802,343,148,1.55121e-05,0.0000000316
176.5,8802,344,149,1.55261e-05,0.0000000316
177,8802,344,149,1.554e-05,0.0000000316
177.5,8802,344,149,1.55539e-05,0.0000000317
178,8802,345,149,1.55678e-05,0.0000000317
178.5,8802,345,149,1.55816e-05,0.0000000317
179,8802,345,150,1.55954e-05,0.0000000318
179.5,8802,345,150,1.56091e-05,0.0000000318
180,8802,346,150,1.56229e-05,0.0000000319
180.5,8802,346,150,1.56365e-05,0.0000000319
181,8802,346,150,1.56502e-05,0.0000000319
181.5,8802,346,151,1.56638e-05,0.000000032
182,8802,347,151,1.56774e-05,0.000000032
182.5,8802,347,151,1.56909e-05,0.0000000321
183,8802,347,151,1.57044e-05,0.0000000321
183.5,8802,347,151,1.57179e-05,0.0000000321
184,8802,348,152,1.57314e-05,0.0000000322
184.5,8802,348,152,1.57448e-05,0.0000000322
185,8802,348,152,1.57582e-05,0.0000000322
185.5,8802,348,152,1.57715e-05,0.0000000323
186,8802,349,152,1.57849e-05,0.0000000323
186.5,8802,349,153,1.57982e-05,0.0000000324
187,8802,349,153,1.58115e-05,0.0000000324
187.5,8802,349,153,1.58247e-05,0.0000000324
188,8802,350,153,1.58379e-05,0.0000000325
188.5,8802,350,153,1.58511e-05,0.0000000325
189,8802,350,154,1.58643e-05,0.0000000326
189.5,8802,350,154,1.58774e-05,0.0000000326
190,8802,351,154,1.58905e-05,0.0000000326
190.5,8802,351,154,1.59035e-05,0.0000000327
191,8802,351,154,1.59166e-05,0.0000000327
191.5,8802,351,155,1.59296e-05,0.0000000327
192,8802,351,155,1.59426e-05,0.0000000328
192.5,8802,352,155,1.59555e-05,0.0000000328
193,8802,352,155,1.59684e-05,0.0000000329
193.5,8802,352,155,1.59813e-05,0.0000000329
194,8802,352,156,1.59942e-05,0.0000000329
194.5,8802,353,156,1.6007e-05,0.000000033
195,8802,353,156,1.60198e-05,0.000000033
195.5,8802,353,156,1.60326e-05,0.0000000331
196,8802,353,156,1.60453e-05,0.0000000331
196.5,8802,353,157,1.6058e-05,0.0000000331
197,8802,354,157,1.60707e-05,0.0000000332
197.5,8802,354,157,1.60833e-05,0.0000000332
198,8802,354,157,1.60959e-05,0.0000000332
198.5,8802,354,157,1.61085e-05,0.0000000333
199,8802,354,158,1.6121e-05,0.0000000333
199.5,8802,355,158,1.61335e-05,0.0000000334
200,8802,355,158,1.6146e-05,0.0000000334
200.5,8802,355,158,1.61584e-05,0.0000000334
201,8802,355,158,1.61708e-05,0.0000000335
201.5,8802,356,159,1.61831e-05,0.0000000335
202,8802,356,159,1.61954e-05,0.0000000336
202.5,8802,356,159,1.62077e-05,0.0000000336
203,8802,356,159,1.62199e-05,0.0000000336
203.5,8802,356,159,1.62321e-05,0.0000000337
204,8802,357,160,1.62442e-05,0.0000000337
204.5,8802,357,160,1.62563e-05,0.0000000338
205,8802,357,160,1.62684e-05,0.0000000338
205.5,8802,357,160,1.62804e-05,0.0000000338
206,8802,358,160,1.62923e-05,0.0000000339
206.5,8802,358,160,1.63042e-05,0.0000000339
207,8802,358,161,0.00001631608,0.0000000339
207.5,8802,358,161,1.63279e-05,0.000000034
208,8802,358,161,1.63397e-05,0.000000034
208.5,8802,359,161,1.63514e-05,0.0000000341
209,8802,359,161,1.6363e-05,0.0000000341
209.5,8802,359,162,1.63746e-05,0.0000000341
210,8802,359,162,1.63862e-05,0.0000000342
210.5,8802,360,162,1.63977e-05,0.0000000342
211,8802,360,162,1.64091e-05,0.0000000343
211.5,8802,360,162,1.64205e-05,0.0000000343
212,8802,360,163,1.64318e-05,0.0000000343
212.5,8802,360,163,1.64431e-05,0.0000000344
213,8802,361,163,1.64543e-05,0.0000000344
213.5,8802,361,163,1.64654e-05,0.0000000345
214,8802,361,163,1.64765e-05,0.0000000345
214.5,8802,361,163,1.64875e-05,0.0000000345
215,8802,361,164,1.64984e-05,0.0000000346
215.5,8802,362,164,1.65093e-05,0.0000000346
216,8802,362,164,1.65201e-05,0.0000000346
216.5,8802,362,164,1.65309e-05,0.0000000347
217,8802,362,164,1.65415e-05,0.0000000347
217.5,8802,362,165,1.65521e-05,0.0000000348
218,8802,363,165,1.65627e-05,0.0000000348
218.5,8802,363,165,1.65731e-05,0.0000000348
219,8802,363,165,1.65835e-05,0.0000000349
219.5,8802,363,165,1.65938e-05,0.0000000349
220,8802,363,165,1.6604e-05,0.000000035
220.5,8802,364,166,1.66142e-05,0.000000035
221,8802,364,166,1.66242e-05,0.000000035
221.5,8802,364,166,1.66342e-05,0.0000000351
222,8802,364,166,1.66441e-05,0.0000000351
222.5,8802,364,166,1.66539e-05,0.0000000352
223,8802,364,167,1.66637e-05,0.0000000352
223.5,8802,365,167,1.66733e-05,0.0000000352
224,8802,365,167,1.66829e-05,0.0000000353
224.5,8802,365,167,1.66923e-05,0.0000000353
225,8802,365,167,1.67017e-05,0.0000000353
225.5,8802,365,167,1.6711e-05,0.0000000354
226,8802,365,168,1.67202e-05,0.0000000354
226.5,8802,366,168,1.67293e-05,0.0000000355
227,8802,366,168,1.67384e-05,0.0000000355
227.5,8802,366,168,1.67473e-05,0.0000000355
228,8802,366,168,1.67561e-05,0.0000000356
228.5,8802,366,169,1.67649e-05,0.0000000356
229,8802,367,169,1.67735e-05,0.0000000357
229.5,8802,367,169,1.6782e-05,0.0000000357
230,8802,367,169,1.67905e-05,0.0000000357
230.5,8802,367,169,1.67988e-05,0.0000000358
231,8802,367,169,1.68071e-05,0.0000000358
231.5,8802,367,170,1.68152e-05,0.0000000358
232,8802,367,170,1.68232e-05,0.0000000359
232.5,8802,368,170,1.68312e-05,0.0000000359
233,8802,368,170,1.6839e-05,0.000000036
233.5,8802,368,170,1.68467e-05,0.000000036
234,8802,368,170,1.68543e-05,0.000000036
234.5,8802,368,171,1.68619e-05,0.0000000361
235,8802,368,171,1.68693e-05,0.0000000361
235.5,8802,369,171,1.68766e-05,0.0000000362
236,8802,369,171,1.68838e-05,0.0000000362
236.5,8802,369,171,1.68908e-05,0.0000000362
237,8802,369,172,1.68978e-05,0.0000000363
237.5,8802,369,172,1.69047e-05,0.0000000363
238,8802,369,172,1.69114e-05,0.0000000364
238.5,8802,369,172,1.69181e-05,0.0000000364
239,8802,370,172,1.69246e-05,0.0000000364
239.5,8802,370,172,1.6931e-05,0.0000000365
240,8802,370,173,1.69374e-05,0.0000000365
240.5,8802,370,173,1.69436e-05,0.0000000365
241,8802,370,173,1.69496e-05,0.0000000366
241.5,8802,370,173,1.69556e-05,0.0000000366
242,8802,370,173,1.69615e-05,0.0000000367
242.5,8802,371,173,1.69673e-05,0.0000000367
243,8802,371,174,1.69729e-05,0.0000000367
243.5,8802,371,174,1.69784e-05,0.0000000368
244,8802,371,174,1.69839e-05,0.0000000368
244.5,8802,371,174,1.69892e-05,0.0000000368
245,8802,371,174,1.69944e-05,0.0000000369
245.5,8802,371,174,1.69995e-05,0.0000000369
246,8802,371,175,1.70045e-05,0.000000037
246.5,8802,372,175,1.70093e-05,0.000000037
247,8802,372,175,1.70141e-05,0.000000037
247.5,8802,372,175,1.70188e-05,0.0000000371
248,8802,372,175,1.70233e-05,0.0000000371
248.5,8802,372,175,1.70278e-05,0.0000000372
249,8802,372,176,1.70321e-05,0.0000000372
249.5,8802,372,176,1.70364e-05,0.0000000372
250,8802,372,176,1.70405e-05,0.0000000373
250.5,8802,373,176,1.70445e-05,0.0000000373
251,8802,373,176,1.70485e-05,0.0000000373
251.5,8802,373,177,1.70523e-05,0.0000000374
252,8802,373,177,1.7056e-05,0.0000000374
252.5,8802,373,177,1.70597e-05,0.0000000375
253,8802,373,177,1.70632e-05,0.0000000375
253.5,8802,373,177,1.70667e-05,0.0000000375
254,8802,373,177,1.707e-05,0.0000000376
254.5,8802,373,178,1.70733e-05,0.0000000376
255,8802,373,178,1.70765e-05,0.0000000376
255.5,8802,373,178,1.70796e-05,0.0000000377
256,8802,374,178,1.70826e-05,0.0000000377
256.5,8802,374,178,1.70855e-05,0.0000000378
257,8802,374,178,1.70884e-05,0.0000000378
257.5,8802,374,179,1.70911e-05,0.0000000378
258,8802,374,179,1.70938e-05,0.0000000379
258.5,8802,374,179,1.70964e-05,0.0000000379
259,8802,374,179,1.7099e-05,0.0000000379
259.5,8802,374,179,1.71015e-05,0.000000038
260,8802,374,179,1.71039e-05,0.000000038
260.5,8802,374,180,1.71062e-05,0.0000000381
261,8802,374,180,1.71085e-05,0.0000000381
261.5,8802,375,180,1.71108e-05,0.0000000381
262,8802,375,180,1.7113e-05,0.0000000382
262.5,8802,375,180,1.71151e-05,0.0000000382
263,8802,375,180,1.71172e-05,0.0000000382
263.5,8802,375,181,1.71193e-05,0.0000000383
264,8802,375,181,1.71213e-05,0.0000000383
264.5,8802,375,181,1.71233e-05,0.0000000384
265,8802,375,181,1.71252e-05,0.0000000384
265.5,8802,375,181,1.71272e-05,0.0000000384
266,8802,375,181,1.71291e-05,0.0000000385
266.5,8802,375,182,1.7131e-05,0.0000000385
267,8802,375,182,1.71328e-05,0.0000000385
267.5,8802,376,182,1.71347e-05,0.0000000386
268,8802,376,182,1.71366e-05,0.0000000386
268.5,8802,376,182,1.71384e-05,0.0000000387
269,8802,376,182,1.71403e-05,0.0000000387
269.5,8802,376,183,1.71422e-05,0.0000000387
270,8802,376,183,1.71441e-05,0.0000000388
270.5,8802,376,183,1.71461e-05,0.0000000388
271,8802,376,183,1.7148e-05,0.0000000388
271.5,8802,376,183,1.715e-05,0.0000000389
272,8802,376,183,1.71521e-05,0.0000000389
272.5,8802,376,184,1.71541e-05,0.000000039
273,8802,376,184,1.71563e-05,0.000000039
273.5,8802,376,184,1.71585e-05,0.000000039
274,8802,377,184,1.71608e-05,0.0000000391
274.5,8802,377,184,1.71608e-05,0.0000000391
275,8802,377,184,1.71608e-05,0.0000000392
275.5,8802,377,185,1.71608e-05,0.0000000392
276,8802,377,185,1.71608e-05,0.0000000392
276.5,8802,377,185,1.71608e-05,0.0000000393
277,8802,377,185,1.71608e-05,0.0000000393
277.5,8802,377,185,1.71608e-05,0.0000000393
278,8802,377,185,1.71608e-05,0.0000000394
278.5,8802,377,185,1.71608e-05,0.0000000394
279,8802,377,186,1.71608e-05,0.0000000395
279.5,8802,377,186,1.71608e-05,0.0000000395
280,8802,377,186,1.71608e-05,0.0000000395
280.5,8802,378,186,1.71608e-05,0.0000000396
281,8802,378,186,1.71608e-05,0.0000000396
281.5,8802,378,186,1.71608e-05,0.0000000396
282,8802,378,187,1.71608e-05,0.0000000397
282.5,8802,378,187,1.71608e-05,0.0000000397
283,8802,378,187,1.71608e-05,0.0000000398
283.5,8802,378,187,1.71608e-05,0.0000000398
284,8802,378,187,1.71608e-05,0.0000000398
284.5,8802,378,187,1.71608e-05,0.0000000399
285,8802,378,188,1.71608e-05,0.0000000399
285.5,8802,378,188,1.71608e-05,0.00000004
286,8802,378,188,1.71608e-05,0.00000004
286.5,8802,379,188,1.71608e-05,0.00000004
287,8802,379,188,1.71608e-05,0.0000000401
287.5,8802,379,188,1.71608e-05,0.0000000401
288,8802,379,189,1.71608e-05,0.0000000402
288.5,8802,379,189,1.71608e-05,0.0000000402
289,8802,379,189,1.71608e-05,0.0000000402
289.5,8802,379,189,1.71608e-05,0.0000000403
290,8802,379,189,1.71608e-05,0.0000000403
290.5,8802,379,189,1.71608e-05,0.0000000403
291,8802,379,189,1.71608e-05,0.0000000404
291.5,8802,379,190,1.71608e-05,0.0000000404
292,8802,379,190,1.71608e-05,0.0000000405
292.5,8802,380,190,1.71608e-05,0.0000000405
293,8802,380,190,1.71608e-05,0.0000000405
293.5,8802,380,190,1.71608e-05,0.0000000406
294,8802,380,190,1.71608e-05,0.0000000406
294.5,8802,380,191,1.71608e-05,0.0000000407
295,8802,380,191,1.71608e-05,0.0000000407
295.5,8802,380,191,1.71608e-05,0.0000000407
296,8802,380,191,1.71608e-05,0.0000000408
296.5,8802,380,191,1.71608e-05,0.0000000408
297,8802,380,191,1.71608e-05,0.0000000409
297.5,8802,380,192,1.71608e-05,0.0000000409
298,8802,381,192,1.71608e-05,0.0000000409
298.5,8802,381,192,1.71608e-05,0.000000041
299,8802,381,192,1.71608e-05,0.000000041
299.5,8802,381,192,1.71608e-05,0.0000000411
300,8802,381,192,1.71608e-05,0.0000000411