File: SolidProps/lib/COPPER-NICKEL_70-30.csv
T/K,rho/(kg/m3),cp/(J/(kg.K)),K/(W/(m.K)),alpha_thermal/(1/K),resistivity/(ohm.m)
1,8939,0.118,0.265,0,0.000000363
1.5,8939,0.17,0.402,0,0.000000364
2,8939,0.224,0.534,0,0.000000364
2.5,8939,0.28,0.664,0,0.000000364
3,8939,0.341,0.795,0,0.000000364
3.5,8939,0.405,0.93,0,0.000000364
4,8939,0.473,1.07,0,0.000000364
4.5,8939,0.546,1.22,0,0.000000364
5,8939,0.626,1.45,0,0.000000364
5.5,8939,0.711,1.67,0,0.000000364
6,8939,0.801,1.91,0,0.000000364
6.5,8939,0.899,2.17,0,0.000000364
7,8939,1,2.44,0,0.000000364
7.5,8939,1.11,2.73,0,0.000000364
8,8939,1.23,3.02,0,0.000000364
8.5,8939,1.36,3.33,0,0.000000364
9,8939,1.5,3.64,0,0.000000364
9.5,8939,1.68,4,0,0.000000365
10,8939,1.8,4.3,0,0.000000365
10.5,8939,1.92,4.6,0,0.000000365
11,8939,2.06,4.9,0,0.000000365
11.5,8939,2.2,5.21,0,0.000000365
12,8939,2.35,5.51,0,0.000000365
12.5,8939,2.52,5.82,0,0.000000365
13,8939,2.7,6.13,0,0.000000365
13.5,8939,2.9,6.44,0,0.000000365
14,8939,3.11,6.75,0,0.000000365
14.5,8939,3.34,7.06,0,0.000000365
15,8939,3.59,7.37,0,0.000000365
15.5,8939,3.86,7.68,0,0.000000365
16,8939,4.15,7.99,6.40314e-08,0.000000365
16.5,8939,4.47,8.3,8.668e-08,0.000000365
17,8939,4.81,8.61,1.00334e-07,0.000000365
17.5,8939,5.17,8.91,1.2498e-07,0.000000365
18,8939,5.56,9.21,1.50607e-07,0.000000365
18.5,8939,5.99,9.52,1.77202e-07,0.000000365
19,8939,6.44,9.81,2.24753e-07,0.000000365
19.5,8939,6.82,10.1,2.43248e-07,0.000000365
20,8939,7.44,10.4,2.72676e-07,0.000000365
20.5,8939,8.08,10.7,3.03024e-07,0.000000365
21,8939,8.76,10.9,3.2428e-07,0.000000365
21.5,8939,9.47,11.2,3.46434e-07,0.000000365
22,8939,10.2,11.4,3.79473e-07,0.000000365
22.5,8939,11,11.7,4.03385e-07,0.000000365
23,8939,11.8,12,4.2816e-07,0.000000365
23.5,8939,12.7,12.2,4.53786e-07,0.000000365
24,8939,13.5,12.4,5.80251e-07,0.000000365
24.5,8939,14.5,12.7,5.17544e-07,0.000000365
25,8939,15.4,12.9,5.35655e-07,0.000000365
25.5,8939,16.4,13.1,5.64571e-07,0.000000365
26,8939,17.4,13.4,5.94283e-07,0.000000365
26.5,8939,18.4,13.6,6.34779e-07,0.000000365
27,8939,19.5,13.8,6.76047e-07,0.000000365
27.5,8939,20.6,14,7.08078e-07,0.000000365
28,8939,21.8,14.2,7.40861e-07,0.000000365
28.5,8939,23,14.4,7.84385e-07,0.000000365
29,8939,24.2,14.6,8.28639e-07,0.000000365
29.5,8939,25.3,14.8,8.53613e-07,0.000000365
30,8939,26.7,15,8.79296e-07,0.000000365
30.5,8939,28.1,15.2,9.05678e-07,0.000000365
31,8939,29.5,15.4,9.32749e-07,0.000000365
31.5,8939,30.9,15.5,9.60499e-07,0.000000365
32,8939,32.4,15.7,9.88916e-07,0.000000365
32.5,8939,33.9,15.9,1.01799e-06,0.000000365
33,8939,35.4,16,1.04772e-06,0.000000365
33.5,8939,37,16.2,1.07808e-06,0.000000365
34,8939,38.6,16.3,1.10907e-06,0.000000365
34.5,8939,40.2,16.5,1.14068e-06,0.000000365
35,8939,41.8,16.6,1.1729e-06,0.000000365
35.5,8939,43.4,16.7,1.20572e-06,0.000000365
36,8939,45.1,16.9,1.23912e-06,0.000000365
36.5,8939,46.8,17,1.27311e-06,0.000000365
37,8939,48.5,17.1,1.30767e-06,0.000000365
37.5,8939,50.2,17.2,1.34279e-06,0.000000365
38,8939,51.9,17.4,1.37846e-06,0.000000366
38.5,8939,53.7,17.5,1.41468e-06,0.000000366
39,8939,55.4,17.6,1.45142e-06,0.000000366
39.5,8939,57.3,17.7,1.4887e-06,0.000000366
40,8939,59,17.8,1.52648e-06,0.000000366
40.5,8939,60.7,17.9,1.56478e-06,0.000000366
41,8939,62.4,18,1.60357e-06,0.000000366
41.5,8939,64.2,18.1,1.64285e-06,0.000000366
42,8939,65.9,18.2,1.68261e-06,0.000000366
42.5,8939,67.6,18.2,1.72284e-06,0.000000366
43,8939,69.4,18.3,1.76353e-06,0.000000366
43.5,8939,71.2,18.4,1.80468e-06,0.000000366
44,8939,72.9,18.5,1.84628e-06,0.000000366
44.5,8939,74.7,18.5,1.88831e-06,0.000000366
45,8939,76.5,18.6,1.93076e-06,0.000000366
45.5,8939,78.3,18.7,1.97364e-06,0.000000366
46,8939,80.1,18.7,2.01694e-06,0.000000366
46.5,8939,82,18.8,2.06063e-06,0.000000366
47,8939,83.8,18.8,2.10472e-06,0.000000366
47.5,8939,85.6,18.9,2.1492e-06,0.000000366
48,8939,87.5,19,2.19406e-06,0.000000366
48.5,8939,89.4,19,2.23929e-06,0.000000366
49,8939,91.2,19.1,2.28488e-06,0.000000366
49.5,8939,93.1,19.1,2.33083e-06,0.000000366
50,8939,95,19.2,2.37713e-06,0.000000366
50.5,8939,97,19.3,2.42377e-06,0.000000366
51,8939,98.9,19.3,2.47074e-06,0.000000366
51.5,8939,101,19.4,2.51804e-06,0.000000366
52,8939,103,19.5,2.56566e-06,0.000000366
52.5,8939,105,19.5,2.61358e-06,0.000000366
53,8939,107,19.6,2.66181e-06,0.000000366
53.5,8939,109,19.7,2.71034e-06,0.000000366
54,8939,111,19.7,2.75915e-06,0.000000366
54.5,8939,113,19.8,2.80825e-06,0.000000366
55,8939,115,19.9,2.85762e-06,0.000000366
55.5,8939,117,19.9,2.90726e-06,0.000000366
56,8939,119,20,2.95716e-06,0.000000366
56.5,8939,121,20.1,3.00731e-06,0.000000366
57,8939,123,20.1,3.05771e-06,0.000000366
57.5,8939,125,20.2,3.10835e-06,0.000000366
58,8939,127,20.3,3.15922e-06,0.000000366
58.5,8939,129,20.3,3.21032e-06,0.000000366
59,8939,131,20.4,3.26163e-06,0.000000366
59.5,8939,133,20.4,3.31317e-06,0.000000366
60,8939,135,20.5,3.3649e-06,0.000000366
60.5,8939,137,20.6,3.41684e-06,0.000000366
61,8939,139,20.6,3.46897e-06,0.000000366
61.5,8939,141,20.7,3.52129e-06,0.000000366
62,8939,143,20.8,3.57379e-06,0.000000366
62.5,8939,145,20.8,3.62647e-06,0.000000366
63,8939,147,20.9,3.67931e-06,0.000000367
63.5,8939,149,20.9,3.73232e-06,0.000000367
64,8939,151,21,3.78548e-06,0.000000367
64.5,8939,153,21,3.8388e-06,0.000000367
65,8939,155,21.1,3.89226e-06,0.000000367
65.5,8939,156,21.2,3.94585e-06,0.000000367
66,8939,158,21.2,3.99958e-06,0.000000367
66.5,8939,160,21.3,4.05344e-06,0.000000367
67,8939,162,21.3,4.10742e-06,0.000000367
67.5,8939,164,21.4,4.16152e-06,0.000000367
68,8939,166,21.4,4.21572e-06,0.000000367
68.5,8939,168,21.5,4.27003e-06,0.000000367
69,8939,169,21.5,4.32444e-06,0.000000367
69.5,8939,171,21.6,4.37895e-06,0.000000367
70,8939,173,21.6,4.43354e-06,0.000000367
70.5,8939,175,21.6,4.48821e-06,0.000000367
71,8939,176,21.7,4.54297e-06,0.000000367
71.5,8939,178,21.7,4.59779e-06,0.000000367
72,8939,180,21.7,4.65268e-06,0.000000367
72.5,8939,182,21.7,4.70764e-06,0.000000367
73,8939,183,21.8,4.76265e-06,0.000000367
73.5,8939,185,21.8,4.81771e-06,0.000000367
74,8939,186,21.8,4.87283e-06,0.000000367
74.5,8939,188,21.8,4.92798e-06,0.000000367
75,8939,190,21.8,4.98317e-06,0.000000367
75.5,8939,191,21.9,5.0384e-06,0.000000367
76,8939,193,21.9,5.09365e-06,0.000000367
76.5,8939,194,21.9,5.14892e-06,0.000000367
77,8939,196,21.9,5.20422e-06,0.000000367
77.5,8939,198,21.9,5.25953e-06,0.000000367
78,8939,199,21.9,5.31484e-06,0.000000367
78.5,8939,201,22,5.37017e-06,0.000000367
79,8939,202,22,5.42549e-06,0.000000367
79.5,8939,203,22,5.48081e-06,0.000000367
80,8939,205,22,5.53612e-06,0.000000367
80.5,8939,207,22,5.59142e-06,0.000000367
81,8939,208,22,5.6467e-06,0.000000367
81.5,8939,210,22.1,5.70196e-06,0.000000367
82,8939,211,22.1,5.7572e-06,0.000000367
82.5,8939,213,22.1,5.8124e-06,0.000000367
83,8939,214,22.1,5.86758e-06,0.000000367
83.5,8939,215,22.2,5.92271e-06,0.000000368
84,8939,217,22.2,5.97781e-06,0.000000368
84.5,8939,218,22.2,6.03286e-06,0.000000368
85,8939,220,22.3,6.08786e-06,0.000000368
85.5,8939,221,22.3,6.14281e-06,0.000000368
86,8939,222,22.3,6.1977e-06,0.000000368
86.5,8939,224,22.3,6.25253e-06,0.000000368
87,8939,225,22.4,6.3073e-06,0.000000368
87.5,8939,226,22.4,6.362e-06,0.000000368
88,8939,227,22.4,6.41663e-06,0.000000368
88.5,8939,229,22.4,6.47119e-06,0.000000368
89,8939,230,22.5,6.52567e-06,0.000000368
89.5,8939,231,22.5,6.58006e-06,0.000000368
90,8939,232,22.5,6.63437e-06,0.000000368
90.5,8939,233,22.5,6.68859e-06,0.000000368
91,8939,234,22.5,6.74273e-06,0.000000368
91.5,8939,235,22.6,6.79676e-06,0.000000368
92,8939,236,22.6,6.8507e-06,0.000000368
92.5,8939,236,22.6,6.90454e-06,0.000000368
93,8939,237,22.6,6.95827e-06,0.000000368
93.5,8939,238,22.7,7.0119e-06,0.000000368
94,8939,239,22.7,7.06541e-06,0.000000368
94.5,8939,239,22.7,7.11881e-06,0.000000368
95,8939,240,22.7,7.1721e-06,0.000000368
95.5,8939,240,22.7,7.22527e-06,0.000000369
96,8939,241,22.8,7.27831e-06,0.000000369
96.5,8939,242,22.8,7.33123e-06,0.000000369
97,8939,242,22.8,7.38402e-06,0.000000369
97.5,8939,243,22.8,7.43668e-06,0.000000369
98,8939,243,22.8,7.48921e-06,0.000000369
98.5,8939,244,22.8,7.54161e-06,0.000000369
99,8939,244,22.9,7.59386e-06,0.000000369
99.5,8939,244,22.9,7.64597e-06,0.000000369
100,8939,245,22.9,7.69794e-06,0.000000369
100.5,8939,246,22.9,7.74977e-06,0.000000369
101,8939,246,22.9,7.80145e-06,0.000000369
101.5,8939,247,23,7.85297e-06,0.000000369
102,8939,248,23,7.90434e-06,0.000000369
102.5,8939,249,23,7.95556e-06,0.000000369
103,8939,249,23,8.00662e-06,0.000000369
103.5,8939,250,23,8.05752e-06,0.000000369
104,8939,251,23,8.10825e-06,0.000000369
104.5,8939,251,23.1,8.15883e-06,0.000000369
105,8939,252,23.1,8.20923e-06,0.000000369
105.5,8939,253,23.1,8.25947e-06,0.000000369
106,8939,254,23.1,8.30954e-06,0.00000037
106.5,8939,254,23.1,8.35943e-06,0.00000037
107,8939,255,23.1,8.40915e-06,0.00000037
107.5,8939,256,23.1,8.4587e-06,0.00000037
108,8939,257,23.2,8.50806e-06,0.00000037
108.5,8939,258,23.2,8.55724e-06,0.00000037
109,8939,258,23.2,8.60625e-06,0.00000037
109.5,8939,259,23.2,8.65507e-06,0.00000037
110,8939,260,23.2,8.7037e-06,0.00000037
110.5,8939,261,23.2,8.75214e-06,0.00000037
111,8939,261,23.2,8.8004e-06,0.00000037
111.5,8939,262,23.3,8.84847e-06,0.00000037
112,8939,263,23.3,8.89634e-06,0.00000037
112.5,8939,264,23.3,8.94402e-06,0.00000037
113,8939,265,23.3,8.9915e-06,0.00000037
113.5,8939,265,23.3,9.03879e-06,0.00000037
114,8939,266,23.3,9.08588e-06,0.00000037
114.5,8939,267,23.3,9.13277e-06,0.00000037
115,8939,268,23.4,9.17946e-06,0.00000037
115.5,8939,269,23.4,9.22594e-06,0.00000037
116,8939,269,23.4,9.27223e-06,0.00000037
116.5,8939,270,23.4,9.3183e-06,0.00000037
117,8939,271,23.4,9.36417e-06,0.00000037
117.5,8939,272,23.4,9.40984e-06,0.00000037
118,8939,273,23.4,9.45529e-06,0.000000371
118.5,8939,273,23.4,9.50053e-06,0.000000371
119,8939,274,23.5,9.54556e-06,0.000000371
119.5,8939,275,23.5,9.59038e-06,0.000000371
120,8939,276,23.5,9.63499e-06,0.000000371
120.5,8939,277,23.5,9.67938e-06,0.000000371
121,8939,277,23.5,9.72356e-06,0.000000371
121.5,8939,278,23.5,9.76752e-06,0.000000371
122,8939,279,23.5,9.81127e-06,0.000000371
122.5,8939,280,23.5,9.85479e-06,0.000000371
123,8939,281,23.5,9.8981e-06,0.000000371
123.5,8939,281,23.6,9.94118e-06,0.000000371
124,8939,282,23.6,9.98405e-06,0.000000371
124.5,8939,283,23.6,1.00267e-05,0.000000371
125,8939,284,23.6,1.00691e-05,0.000000371
125.5,8939,285,23.6,1.01113e-05,0.000000371
126,8939,286,23.6,1.01533e-05,0.000000371
126.5,8939,286,23.6,1.0195e-05,0.000000371
127,8939,287,23.6,1.02366e-05,0.000000371
127.5,8939,288,23.6,1.02779e-05,0.000000371
128,8939,289,23.6,1.03189e-05,0.000000371
128.5,8939,290,23.7,1.03598e-05,0.000000371
129,8939,290,23.7,1.04004e-05,0.000000371
129.5,8939,291,23.7,1.04408e-05,0.000000371
130,8939,292,23.7,1.0481e-05,0.000000371
130.5,8939,293,23.7,1.05209e-05,0.000000371
131,8939,294,23.7,1.05606e-05,0.000000372
131.5,8939,295,23.7,1.06001e-05,0.000000372
132,8939,295,23.7,1.06393e-05,0.000000372
132.5,8939,296,23.7,1.06784e-05,0.000000372
133,8939,297,23.7,1.07171e-05,0.000000372
133.5,8939,298,23.7,1.07557e-05,0.000000372
134,8939,299,23.8,1.0794e-05,0.000000372
134.5,8939,299,23.8,1.08321e-05,0.000000372
135,8939,300,23.8,1.087e-05,0.000000372
135.5,8939,301,23.8,1.09076e-05,0.000000372
136,8939,302,23.8,1.0945e-05,0.000000372
136.5,8939,303,23.8,1.09822e-05,0.000000372
137,8939,303,23.8,1.10191e-05,0.000000372
137.5,8939,304,23.8,1.10558e-05,0.000000372
138,8939,305,23.8,1.10923e-05,0.000000372
138.5,8939,306,23.8,1.11285e-05,0.000000372
139,8939,307,23.8,1.11645e-05,0.000000372
139.5,8939,307,23.8,1.12003e-05,0.000000372
140,8939,308,23.8,1.12358e-05,0.000000372
140.5,8939,309,23.9,1.12711e-05,0.000000372
141,8939,310,23.9,1.13062e-05,0.000000372
141.5,8939,310,23.9,1.13411e-05,0.000000372
142,8939,311,23.9,1.13757e-05,0.000000372
142.5,8939,312,23.9,1.14101e-05,0.000000372
143,8939,313,23.9,1.14442e-05,0.000000372
143.5,8939,313,23.9,1.14781e-05,0.000000372
144,8939,314,23.9,1.15118e-05,0.000000373
144.5,8939,315,23.9,1.15453e-05,0.000000373
145,8939,316,23.9,1.15785e-05,0.000000373
145.5,8939,316,23.9,1.16115e-05,0.000000373
146,8939,317,23.9,1.16443e-05,0.000000373
146.5,8939,318,23.9,1.16768e-05,0.000000373
147,8939,319,24,1.17091e-05,0.000000373
147.5,8939,319,24,1.17412e-05,0.000000373
148,8939,320,24,1.17731e-05,0.000000373
148.5,8939,321,24,1.18047e-05,0.000000373
149,8939,322,24,1.18361e-05,0.000000373
149.5,8939,322,24,1.18672e-05,0.000000373
150,8939,323,24,1.18982e-05,0.000000373
150.5,8939,324,24,1.19289e-05,0.000000373
151,8939,324,24,1.19594e-05,0.000000373
151.5,8939,324,24,1.19896e-05,0.000000373
152,8939,325,24,1.20197e-05,0.000000373
152.5,8939,325,24,1.20495e-05,0.000000373
153,8939,326,24.1,1.20791e-05,0.000000373
153.5,8939,326,24.1,1.21084e-05,0.000000373
154,8939,327,24.1,1.21376e-05,0.000000373
154.5,8939,327,24.1,1.21665e-05,0.000000373
155,8939,328,24.1,1.21952e-05,0.000000374
155.5,8939,328,24.1,1.22237e-05,0.000000374
156,8939,329,24.1,1.2252e-05,0.000000374
156.5,8939,329,24.1,1.228e-05,0.000000374
157,8939,330,24.1,1.23078e-05,0.000000374
157.5,8939,330,24.1,1.23354e-05,0.000000374
158,8939,331,24.2,1.23628e-05,0.000000374
158.5,8939,331,24.2,1.239e-05,0.000000374
159,8939,331,24.2,1.24169e-05,0.000000374
159.5,8939,332,24.2,1.24437e-05,0.000000374
160,8939,332,24.2,1.24702e-05,0.000000374
160.5,8939,333,24.2,1.24965e-05,0.000000374
161,8939,333,24.2,1.25226e-05,0.000000374
161.5,8939,333,24.2,1.25485e-05,0.000000374
162,8939,334,24.2,1.25742e-05,0.000000374
162.5,8939,334,24.2,1.25996e-05,0.000000374
163,8939,335,24.2,1.26249e-05,0.000000374
163.5,8939,335,24.3,1.26499e-05,0.000000374
164,8939,335,24.3,1.26748e-05,0.000000374
164.5,8939,336,24.3,1.26994e-05,0.000000375
165,8939,336,24.3,1.27239e-05,0.000000375
165.5,8939,337,24.3,1.27481e-05,0.000000375
166,8939,337,24.3,1.27721e-05,0.000000375
166.5,8939,337,24.3,1.27959e-05,0.000000375
167,8939,338,24.3,1.28195e-05,0.000000375
167.5,8939,338,24.3,1.28429e-05,0.000000375
168,8939,338,24.3,1.28662e-05,0.000000375
168.5,8939,339,24.3,1.28892e-05,0.000000375
169,8939,339,24.4,1.2912e-05,0.000000375
169.5,8939,340,24.4,1.29346e-05,0.000000375
170,8939,340,24.4,1.2957e-05,0.000000375
170.5,8939,340,24.4,1.29793e-05,0.000000375
171,8939,341,24.4,1.30013e-05,0.000000375
171.5,8939,341,24.4,0.00001302316,0.000000375
172,8939,341,24.4,1.30448e-05,0.000000375
172.5,8939,342,24.4,1.30663e-05,0.000000375
173,8939,342,24.4,1.30875e-05,0.000000375
173.5,8939,342,24.4,1.31086e-05,0.000000376
174,8939,343,24.5,1.31295e-05,0.000000376
174.5,8939,343,24.5,1.31502e-05,0.000000376
175,8939,343,24.5,1.31708e-05,0.000000376
175.5,8939,344,24.5,1.31911e-05,0.000000376
176,8939,344,24.5,1.32113e-05,0.000000376
176.5,8939,344,24.5,1.32312e-05,0.000000376
177,8939,344,24.5,1.3251e-05,0.000000376
177.5,8939,345,24.5,1.32707e-05,0.000000376
178,8939,345,24.5,1.32901e-05,0.000000376
178.5,8939,345,24.5,1.33094e-05,0.000000376
179,8939,346,24.6,1.33284e-05,0.000000376
179.5,8939,346,24.6,1.33474e-05,0.000000376
180,8939,346,24.6,1.33661e-05,0.000000376
180.5,8939,347,24.6,1.33847e-05,0.000000376
181,8939,347,24.6,1.3403e-05,0.000000376
181.5,8939,347,24.6,1.34213e-05,0.000000376
182,8939,347,24.6,1.34393e-05,0.000000377
182.5,8939,348,24.6,1.34572e-05,0.000000377
183,8939,348,24.6,1.34749e-05,0.000000377
183.5,8939,348,24.6,1.34925e-05,0.000000377
184,8939,349,24.7,1.35099e-05,0.000000377
184.5,8939,349,24.7,1.35271e-05,0.000000377
185,8939,349,24.7,1.35442e-05,0.000000377
185.5,8939,349,24.7,1.35611e-05,0.000000377
186,8939,350,24.7,1.35778e-05,0.000000377
186.5,8939,350,24.7,1.35944e-05,0.000000377
187,8939,350,24.7,1.36108e-05,0.000000377
187.5,8939,350,24.7,1.36271e-05,0.000000377
188,8939,351,24.7,1.36432e-05,0.000000377
188.5,8939,351,24.7,1.36592e-05,0.000000377
189,8939,351,24.8,1.3675e-05,0.000000377
189.5,8939,351,24.8,1.36907e-05,0.000000377
190,8939,352,24.8,1.37062e-05,0.000000377
190.5,8939,352,24.8,1.37216e-05,0.000000377
191,8939,352,24.8,1.37368e-05,0.000000378
191.5,8939,352,24.8,1.37518e-05,0.000000378
192,8939,353,24.8,1.37668e-05,0.000000378
192.5,8939,353,24.8,1.37816e-05,0.000000378
193,8939,353,24.8,1.37962e-05,0.000000378
193.5,8939,353,24.9,1.38107e-05,0.000000378
194,8939,353,24.9,1.38251e-05,0.000000378
194.5,8939,354,24.9,1.38393e-05,0.000000378
195,8939,354,24.9,1.38534e-05,0.000000378
195.5,8939,354,24.9,1.38673e-05,0.000000378
196,8939,354,24.9,1.38812e-05,0.000000378
196.5,8939,355,24.9,1.38948e-05,0.000000378
197,8939,355,24.9,1.39084e-05,0.000000378
197.5,8939,355,24.9,1.39218e-05,0.000000378
198,8939,355,25,1.39351e-05,0.000000378
198.5,8939,355,25,1.39483e-05,0.000000378
199,8939,356,25,1.39613e-05,0.000000378
199.5,8939,356,25,1.39742e-05,0.000000378
200,8939,356,25,1.3987e-05,0.000000379
200.5,8939,356,25,1.39997e-05,0.000000379
201,8939,356,25,1.40122e-05,0.000000379
201.5,8939,357,25,1.40246e-05,0.000000379
202,8939,357,25,1.40369e-05,0.000000379
202.5,8939,357,25.1,1.40491e-05,0.000000379
203,8939,357,25.1,1.40611e-05,0.000000379
203.5,8939,358,25.1,1.40731e-05,0.000000379
204,8939,358,25.1,1.40849e-05,0.000000379
204.5,8939,358,25.1,1.40966e-05,0.000000379
205,8939,358,25.1,1.41082e-05,0.000000379
205.5,8939,359,25.1,1.41197e-05,0.000000379
206,8939,359,25.1,1.41311e-05,0.000000379
206.5,8939,359,25.2,1.41424e-05,0.000000379
207,8939,359,25.2,1.41535e-05,0.000000379
207.5,8939,359,25.2,1.41646e-05,0.000000379
208,8939,360,25.2,1.41755e-05,0.000000379
208.5,8939,360,25.2,1.41864e-05,0.000000379
209,8939,360,25.2,1.41971e-05,0.000000379
209.5,8939,360,25.2,1.42077e-05,0.00000038
210,8939,360,25.2,1.42183e-05,0.00000038
210.5,8939,361,25.3,1.42287e-05,0.00000038
211,8939,361,25.3,0.00001423901,0.00000038
211.5,8939,361,25.3,1.42492e-05,0.00000038
212,8939,361,25.3,1.42594e-05,0.00000038
212.5,8939,362,25.3,1.42694e-05,0.00000038
213,8939,362,25.3,1.42794e-05,0.00000038
213.5,8939,362,25.3,1.42892e-05,0.00000038
214,8939,362,25.3,1.4299e-05,0.00000038
214.5,8939,362,25.4,1.43086e-05,0.00000038
215,8939,363,25.4,1.43182e-05,0.00000038
215.5,8939,363,25.4,1.43277e-05,0.00000038
216,8939,363,25.4,1.4337e-05,0.00000038
216.5,8939,363,25.4,1.43464e-05,0.00000038
217,8939,363,25.4,1.43556e-05,0.00000038
217.5,8939,363,25.4,1.43647e-05,0.00000038
218,8939,364,25.5,1.43737e-05,0.00000038
218.5,8939,364,25.5,1.43827e-05,0.00000038
219,8939,364,25.5,1.43916e-05,0.00000038
219.5,8939,364,25.5,1.44003e-05,0.000000381
220,8939,364,25.5,1.4409e-05,0.000000381
220.5,8939,365,25.5,1.44177e-05,0.000000381
221,8939,365,25.5,1.44262e-05,0.000000381
221.5,8939,365,25.6,1.44347e-05,0.000000381
222,8939,365,25.6,1.44431e-05,0.000000381
222.5,8939,365,25.6,1.44514e-05,0.000000381
223,8939,366,25.6,1.44596e-05,0.000000381
223.5,8939,366,25.6,1.44678e-05,0.000000381
224,8939,366,25.6,1.44758e-05,0.000000381
224.5,8939,366,25.6,1.44838e-05,0.000000381
225,8939,366,25.7,1.44918e-05,0.000000381
225.5,8939,366,25.7,1.44996e-05,0.000000381
226,8939,367,25.7,1.45074e-05,0.000000381
226.5,8939,367,25.7,1.45151e-05,0.000000381
227,8939,367,25.7,1.45228e-05,0.000000381
227.5,8939,367,25.7,1.45303e-05,0.000000381
228,8939,367,25.7,1.45378e-05,0.000000381
228.5,8939,367,25.8,1.45453e-05,0.000000381
229,8939,368,25.8,1.45526e-05,0.000000381
229.5,8939,368,25.8,1.45599e-05,0.000000381
230,8939,368,25.8,1.45671e-05,0.000000381
230.5,8939,368,25.8,1.45743e-05,0.000000382
231,8939,368,25.8,1.45814e-05,0.000000382
231.5,8939,368,25.9,1.45884e-05,0.000000382
232,8939,369,25.9,1.45954e-05,0.000000382
232.5,8939,369,25.9,1.46023e-05,0.000000382
233,8939,369,25.9,1.46091e-05,0.000000382
233.5,8939,369,25.9,1.46159e-05,0.000000382
234,8939,369,25.9,1.46226e-05,0.000000382
234.5,8939,369,26,1.46292e-05,0.000000382
235,8939,370,26,1.46358e-05,0.000000382
235.5,8939,370,26,1.46423e-05,0.000000382
236,8939,370,26,1.46488e-05,0.000000382
236.5,8939,370,26,1.46551e-05,0.000000382
237,8939,370,26,1.46615e-05,0.000000382
237.5,8939,370,26,1.46677e-05,0.000000382
238,8939,371,26.1,1.4674e-05,0.000000382
238.5,8939,371,26.1,1.46801e-05,0.000000382
239,8939,371,26.1,1.46862e-05,0.000000382
239.5,8939,371,26.1,1.46922e-05,0.000000382
240,8939,371,26.1,1.46982e-05,0.000000382
240.5,8939,371,26.2,1.47041e-05,0.000000382
241,8939,371,26.2,1.47099e-05,0.000000382
241.5,8939,372,26.2,1.47157e-05,0.000000382
242,8939,372,26.2,1.47215e-05,0.000000382
242.5,8939,372,26.2,1.47271e-05,0.000000382
243,8939,372,26.2,1.47328e-05,0.000000383
243.5,8939,372,26.3,1.47383e-05,0.000000383
244,8939,372,26.3,1.47438e-05,0.000000383
244.5,8939,372,26.3,1.47492e-05,0.000000383
245,8939,373,26.3,1.47546e-05,0.000000383
245.5,8939,373,26.3,1.47599e-05,0.000000383
246,8939,373,26.3,1.47652e-05,0.000000383
246.5,8939,373,26.4,1.47704e-05,0.000000383
247,8939,373,26.4,1.47755e-05,0.000000383
247.5,8939,373,26.4,1.47806e-05,0.000000383
248,8939,373,26.4,1.47856e-05,0.000000383
248.5,8939,374,26.4,1.47906e-05,0.000000383
249,8939,374,26.5,1.47955e-05,0.000000383
249.5,8939,374,26.5,1.48003e-05,0.000000383
250,8939,374,26.5,1.48051e-05,0.000000383
250.5,8939,374,26.5,1.48098e-05,0.000000383
251,8939,374,26.5,1.48145e-05,0.000000383
251.5,8939,374,26.6,1.48191e-05,0.000000383
252,8939,375,26.6,1.48236e-05,0.000000383
252.5,8939,375,26.6,1.48281e-05,0.000000383
253,8939,375,26.6,1.48325e-05,0.000000383
253.5,8939,375,26.7,1.48369e-05,0.000000383
254,8939,375,26.7,1.48411e-05,0.000000383
254.5,8939,375,26.7,1.48454e-05,0.000000383
255,8939,375,26.7,1.48495e-05,0.000000383
255.5,8939,376,26.7,1.48536e-05,0.000000383
256,8939,376,26.8,1.48576e-05,0.000000383
256.5,8939,376,26.8,1.48616e-05,0.000000383
257,8939,376,26.8,1.48655e-05,0.000000383
257.5,8939,376,26.8,1.48693e-05,0.000000383
258,8939,376,26.8,1.4873e-05,0.000000383
258.5,8939,376,26.9,1.48767e-05,0.000000383
259,8939,376,26.9,1.48803e-05,0.000000383
259.5,8939,377,26.9,1.48839e-05,0.000000383
260,8939,377,26.9,1.48873e-05,0.000000383
260.5,8939,377,27,1.48907e-05,0.000000383
261,8939,377,27,1.4894e-05,0.000000383
261.5,8939,377,27,1.48973e-05,0.000000384
262,8939,377,27,1.49005e-05,0.000000384
262.5,8939,377,27,1.49036e-05,0.000000384
263,8939,378,27.1,1.49066e-05,0.000000384
263.5,8939,378,27.1,1.49095e-05,0.000000384
264,8939,378,27.1,1.49124e-05,0.000000384
264.5,8939,378,27.1,1.49152e-05,0.000000384
265,8939,378,27.2,1.49179e-05,0.000000384
265.5,8939,378,27.2,1.49205e-05,0.000000384
266,8939,378,27.2,1.4923e-05,0.000000384
266.5,8939,378,27.2,1.49254e-05,0.000000384
267,8939,379,27.2,1.49278e-05,0.000000384
267.5,8939,379,27.3,1.49301e-05,0.000000384
268,8939,379,27.3,1.49322e-05,0.000000384
268.5,8939,379,27.3,1.49343e-05,0.000000384
269,8939,379,27.3,1.49363e-05,0.000000384
269.5,8939,379,27.4,1.49382e-05,0.000000384
270,8939,379,27.4,1.494e-05,0.000000384
270.5,8939,379,27.4,1.49417e-05,0.000000384
271,8939,380,27.4,1.49434e-05,0.000000384
271.5,8939,380,27.4,1.49449e-05,0.000000384
272,8939,380,27.5,1.49463e-05,0.000000384
272.5,8939,380,27.5,1.49476e-05,0.000000384
273,8939,380,27.5,1.49488e-05,0.000000384
273.5,8939,380,27.5,1.49499e-05,0.000000384
274,8939,380,27.5,1.49509e-05,0.000000384
274.5,8939,380,27.6,1.49517e-05,0.000000384
275,8939,380,27.6,1.49525e-05,0.000000384
275.5,8939,381,27.6,1.49532e-05,0.000000384
276,8939,381,27.6,1.49537e-05,0.000000384
276.5,8939,381,27.6,1.49541e-05,0.000000384
277,8939,381,27.7,1.49544e-05,0.000000384
277.5,8939,381,27.7,1.49546e-05,0.000000384
278,8939,381,27.7,1.49546e-05,0.000000384
278.5,8939,381,27.7,1.49545e-05,0.000000384
279,8939,381,27.7,1.49543e-05,0.000000384
279.5,8939,382,27.8,1.4954e-05,0.000000384
280,8939,382,27.8,1.49535e-05,0.000000384
280.5,8939,382,27.8,1.49529e-05,0.000000384
281,8939,382,27.8,1.49522e-05,0.000000384
281.5,8939,382,27.9,1.49513e-05,0.000000384
282,8939,382,27.9,1.49503e-05,0.000000384
282.5,8939,382,27.9,1.49491e-05,0.000000384
283,8939,382,27.9,1.49478e-05,0.000000384
283.5,8939,382,27.9,1.49463e-05,0.000000384
284,8939,383,27.9,1.49447e-05,0.000000385
284.5,8939,383,28,1.4943e-05,0.000000385
285,8939,383,28,1.4941e-05,0.000000385
285.5,8939,383,28,1.49389e-05,0.000000385
286,8939,383,28,1.49367e-05,0.000000385
286.5,8939,383,28,1.49343e-05,0.000000385
287,8939,383,28.1,1.49317e-05,0.000000385
287.5,8939,383,28.1,1.49317e-05,0.000000385
288,8939,383,28.1,1.49317e-05,0.000000385
288.5,8939,384,28.1,1.49317e-05,0.000000385
289,8939,384,28.1,1.49317e-05,0.000000385
289.5,8939,384,28.2,1.49317e-05,0.000000385
290,8939,384,28.2,1.49317e-05,0.000000385
290.5,8939,384,28.2,1.49317e-05,0.000000385
291,8939,384,28.2,1.49317e-05,0.000000385
291.5,8939,384,28.2,1.49317e-05,0.000000385
292,8939,384,28.2,1.49317e-05,0.000000385
292.5,8939,384,28.3,1.49317e-05,0.000000385
293,8939,385,28.3,1.49317e-05,0.000000385
293.5,8939,385,28.3,1.49317e-05,0.000000385
294,8939,385,28.3,1.49317e-05,0.000000385
294.5,8939,385,28.3,1.49317e-05,0.000000385
295,8939,385,28.3,1.49317e-05,0.000000385
295.5,8939,385,28.4,1.49317e-05,0.000000385
296,8939,385,28.4,1.49317e-05,0.000000385
296.5,8939,385,28.4,1.49317e-05,0.000000385
297,8939,385,28.4,1.49317e-05,0.000000385
297.5,8939,385,28.4,1.49317e-05,0.000000385
298,8939,386,28.4,1.49317e-05,0.000000385
298.5,8939,386,28.5,1.49317e-05,0.000000385
299,8939,386,28.5,1.49317e-05,0.000000385
299.5,8939,386,28.5,1.49317e-05,0.000000385
300,8939,386,28.5,1.49317e-05,0.000000386