File: SolidProps/lib/COPPER_PURE.csv
T/K,rho/(kg/m3),cp/(J/(kg.K)),K/(W/(m.K)),alpha_thermal/(1/K),resistivity/(ohm.m)
1,8960,0.012,93.6,2.4325e-08,2.61E-10
1.5,8960,0.0192,140,3.71414e-08,2.61E-10
2,8960,0.028,187,5.07475e-08,2.61E-10
2.5,8960,0.0389,234,6.51361e-08,2.61E-10
3,8960,0.0525,281,8.02996e-08,2.61E-10
3.5,8960,0.0695,328,9.62308e-08,2.61E-10
4,8960,0.0904,374,1.12922e-07,2.61E-10
4.5,8960,0.116,421,1.30367e-07,2.61E-10
5,8960,0.143,468,1.48557e-07,2.61E-10
5.5,8960,0.177,515,1.67486e-07,2.61E-10
6,8960,0.218,561,1.87146e-07,2.61E-10
6.5,8960,0.265,607,2.0753e-07,2.61E-10
7,8960,0.321,653,2.28632e-07,2.61E-10
7.5,8960,0.386,699,2.50442e-07,2.61E-10
8,8960,0.46,745,2.72956e-07,2.61E-10
8.5,8960,0.545,790,2.96165e-07,2.61E-10
9,8960,0.641,834,3.20062e-07,2.61E-10
9.5,8960,0.754,878,3.44641e-07,2.62E-10
10,8960,0.87,922,3.69895e-07,2.62E-10
10.5,8960,1,964,3.95815e-07,2.62E-10
11,8960,1.14,1010,4.22396e-07,2.62E-10
11.5,8960,1.3,1050,4.49631e-07,2.62E-10
12,8960,1.48,1090,4.77512e-07,2.62E-10
12.5,8960,1.67,1130,5.06032e-07,2.62E-10
13,8960,1.88,1170,5.35186e-07,2.62E-10
13.5,8960,2.11,1200,5.64965e-07,2.63E-10
14,8960,2.36,1240,5.95363e-07,2.63E-10
14.5,8960,2.63,1280,6.26374e-07,2.63E-10
15,8960,2.93,1310,6.5799e-07,2.64E-10
15.5,8960,3.24,1350,6.90204e-07,2.64E-10
16,8960,3.58,1380,7.23011e-07,2.65E-10
16.5,8960,3.95,1410,7.56403e-07,2.66E-10
17,8960,4.34,1440,7.90373e-07,2.66E-10
17.5,8960,4.75,1470,8.24916e-07,2.67E-10
18,8960,5.2,1500,8.60024e-07,2.68E-10
18.5,8960,5.67,1520,8.9569e-07,2.69E-10
19,8960,6.17,1550,9.31908e-07,2.7E-10
19.5,8960,6.64,1570,9.68672e-07,2.72E-10
20,8960,7.27,1590,1.00598e-06,2.73E-10
20.5,8960,7.93,1600,1.04381e-06,2.74E-10
21,8960,8.62,1620,1.08217e-06,2.75E-10
21.5,8960,9.34,1630,1.12105e-06,2.77E-10
22,8960,10.1,1640,1.16045e-06,2.79E-10
22.5,8960,10.9,1650,1.20035e-06,2.81E-10
23,8960,11.7,1650,1.24075e-06,2.82E-10
23.5,8960,12.6,1660,1.28165e-06,2.85E-10
24,8960,13.4,1660,1.32303e-06,2.87E-10
24.5,8960,14.4,1660,1.36489e-06,2.89E-10
25,8960,15.3,1660,1.40723e-06,2.92E-10
25.5,8960,16.3,1660,1.45004e-06,2.95E-10
26,8960,17.3,1660,1.49331e-06,2.98E-10
26.5,8960,18.4,1660,1.53704e-06,3.01E-10
27,8960,19.4,1660,1.58121e-06,3.05E-10
27.5,8960,20.5,1650,1.62583e-06,3.08E-10
28,8960,21.7,1640,1.67089e-06,3.12E-10
28.5,8960,22.9,1640,1.71638e-06,3.16E-10
29,8960,24.1,1630,1.7623e-06,3.21E-10
29.5,8960,25.2,1620,1.80863e-06,3.25E-10
30,8960,26.6,1610,1.85538e-06,3.3E-10
30.5,8960,28,1590,1.90254e-06,3.36E-10
31,8960,29.4,1580,1.9501e-06,3.41E-10
31.5,8960,30.9,1570,1.99805e-06,3.47E-10
32,8960,32.3,1550,2.04639e-06,3.53E-10
32.5,8960,33.8,1540,2.09512e-06,3.59E-10
33,8960,35.4,1520,2.14422e-06,3.66E-10
33.5,8960,36.9,1500,2.1937e-06,3.73E-10
34,8960,38.5,1480,2.24354e-06,3.8E-10
34.5,8960,40.1,1460,2.29374e-06,3.88E-10
35,8960,41.8,1450,2.3443e-06,3.96E-10
35.5,8960,43.4,1430,2.39521e-06,4.04E-10
36,8960,45.1,1410,2.44645e-06,4.12E-10
36.5,8960,46.8,1390,2.49804e-06,4.21E-10
37,8960,48.5,1370,2.54996e-06,4.3E-10
37.5,8960,50.2,1340,2.6022e-06,4.4E-10
38,8960,51.9,1320,2.65476e-06,4.5E-10
38.5,8960,53.7,1300,2.70764e-06,4.6E-10
39,8960,55.4,1280,2.76083e-06,4.7E-10
39.5,8960,57.3,1260,2.81432e-06,4.8E-10
40,8960,59,1240,2.8681e-06,4.92E-10
40.5,8960,60.7,1220,2.92218e-06,5.04E-10
41,8960,62.4,1200,2.97655e-06,5.17E-10
41.5,8960,64.2,1180,3.0312e-06,5.29E-10
42,8960,65.9,1170,3.08612e-06,5.42E-10
42.5,8960,67.6,1150,3.14132e-06,5.56E-10
43,8960,69.4,1130,3.19678e-06,5.7E-10
43.5,8960,71.2,1110,3.2525e-06,5.84E-10
44,8960,72.9,1100,3.30847e-06,5.98E-10
44.5,8960,74.7,1080,3.36469e-06,6.13E-10
45,8960,76.5,1060,3.42116e-06,6.28E-10
45.5,8960,78.3,1050,3.47786e-06,6.43E-10
46,8960,80.1,1030,3.5348e-06,6.59E-10
46.5,8960,82,1010,3.59197e-06,6.75E-10
47,8960,83.8,996,3.64935e-06,6.92E-10
47.5,8960,85.6,980,3.70696e-06,7.08E-10
48,8960,87.5,964,3.76478e-06,7.25E-10
48.5,8960,89.4,949,3.8228e-06,7.43E-10
49,8960,91.2,934,3.88103e-06,7.6E-10
49.5,8960,93,918,3.93946e-06,7.79E-10
50,8960,95,904,3.99807e-06,7.97E-10
50.5,8960,97,891,4.05688e-06,8.15E-10
51,8960,99,878,4.11586e-06,8.34E-10
51.5,8960,101,865,4.17502e-06,8.53E-10
52,8960,103,853,4.23436e-06,8.72E-10
52.5,8960,105,841,4.29386e-06,8.92E-10
53,8960,107,829,4.35352e-06,9.11E-10
53.5,8960,109,817,4.41335e-06,9.32E-10
54,8960,111,806,4.47332e-06,9.52E-10
54.5,8960,113,795,4.53344e-06,9.73E-10
55,8960,115,784,4.5937e-06,9.94E-10
55.5,8960,117,774,4.65411e-06,0.00000000102
56,8960,119,764,4.71464e-06,0.00000000104
56.5,8960,121,754,4.77531e-06,0.00000000106
57,8960,123,744,4.83609e-06,0.00000000108
57.5,8960,125,735,4.897e-06,0.0000000011
58,8960,127,726,4.95802e-06,0.00000000113
58.5,8960,129,717,5.01915e-06,0.00000000115
59,8960,131,708,5.08039e-06,0.00000000117
59.5,8960,133,700,5.14173e-06,0.0000000012
60,8960,135,692,5.20316e-06,0.00000000122
60.5,8960,137,684,5.26468e-06,0.00000000125
61,8960,139,676,5.3263e-06,0.00000000127
61.5,8960,140,669,5.38799e-06,0.0000000013
62,8960,142,662,5.44976e-06,0.00000000132
62.5,8960,144,655,5.51161e-06,0.00000000135
63,8960,146,648,5.57352e-06,0.00000000137
63.5,8960,148,642,5.6355e-06,0.0000000014
64,8960,149,635,5.69754e-06,0.00000000142
64.5,8960,151,629,5.75964e-06,0.00000000145
65,8960,153,623,5.82179e-06,0.00000000148
65.5,8960,155,617,5.88398e-06,0.00000000151
66,8960,156,612,5.94622e-06,0.00000000153
66.5,8960,158,606,6.0085e-06,0.00000000156
67,8960,160,601,6.07081e-06,0.00000000159
67.5,8960,161,596,6.13315e-06,0.00000000162
68,8960,163,591,6.19552e-06,0.00000000165
68.5,8960,165,586,6.25791e-06,0.00000000167
69,8960,167,581,6.32032e-06,0.0000000017
69.5,8960,168,577,6.38275e-06,0.00000000173
70,8960,170,573,6.44518e-06,0.00000000176
70.5,8960,172,568,6.50762e-06,0.00000000179
71,8960,174,564,6.57006e-06,0.00000000182
71.5,8960,175,560,6.6325e-06,0.00000000185
72,8960,177,556,6.69493e-06,0.00000000188
72.5,8960,179,552,6.75736e-06,0.00000000191
73,8960,181,548,6.81976e-06,0.00000000195
73.5,8960,183,545,6.88216e-06,0.00000000198
74,8960,185,541,6.94452e-06,0.00000000201
74.5,8960,186,538,7.00687e-06,0.00000000204
75,8960,188,535,7.06918e-06,0.00000000207
75.5,8960,190,532,7.13146e-06,0.0000000021
76,8960,192,528,7.19371e-06,0.00000000214
76.5,8960,193,526,7.25591e-06,0.00000000217
77,8960,195,523,7.31807e-06,0.0000000022
77.5,8960,197,520,7.38018e-06,0.00000000224
78,8960,198,517,7.44224e-06,0.00000000227
78.5,8960,200,515,7.50425e-06,0.0000000023
79,8960,202,512,7.56619e-06,0.00000000233
79.5,8960,204,510,7.62807e-06,0.00000000237
80,8960,205,507,7.68989e-06,0.0000000024
80.5,8960,206,505,7.75163e-06,0.00000000244
81,8960,208,502,7.81331e-06,0.00000000247
81.5,8960,209,500,7.8749e-06,0.0000000025
82,8960,211,498,7.93642e-06,0.00000000254
82.5,8960,212,496,7.99785e-06,0.00000000257
83,8960,213,494,8.05919e-06,0.00000000261
83.5,8960,215,492,8.12044e-06,0.00000000264
84,8960,216,490,8.1816e-06,0.00000000268
84.5,8960,217,488,8.24266e-06,0.00000000271
85,8960,218,486,8.30363e-06,0.00000000275
85.5,8960,220,484,8.36448e-06,0.00000000278
86,8960,221,483,8.42523e-06,0.00000000282
86.5,8960,222,481,8.48587e-06,0.00000000285
87,8960,223,479,8.5464e-06,0.00000000289
87.5,8960,224,478,8.60681e-06,0.00000000292
88,8960,226,476,8.66709e-06,0.00000000296
88.5,8960,227,475,8.72726e-06,0.000000003
89,8960,228,473,8.7873e-06,0.00000000303
89.5,8960,229,472,8.8472e-06,0.00000000307
90,8960,230,471,8.90698e-06,0.0000000031
90.5,8960,231,469,8.96662e-06,0.00000000314
91,8960,232,468,9.02612e-06,0.00000000318
91.5,8960,233,467,9.08548e-06,0.00000000321
92,8960,234,465,9.1447e-06,0.00000000325
92.5,8960,236,464,9.20376e-06,0.00000000328
93,8960,237,463,9.26268e-06,0.00000000332
93.5,8960,238,462,9.32144e-06,0.00000000336
94,8960,239,460,9.38005e-06,0.00000000339
94.5,8960,240,459,9.43849e-06,0.00000000343
95,8960,241,458,9.49678e-06,0.00000000347
95.5,8960,242,457,9.5549e-06,0.0000000035
96,8960,243,456,9.61285e-06,0.00000000354
96.5,8960,244,455,9.67063e-06,0.00000000358
97,8960,245,454,9.72824e-06,0.00000000361
97.5,8960,246,453,9.78567e-06,0.00000000365
98,8960,247,452,9.84292e-06,0.00000000369
98.5,8960,248,452,9.9e-06,0.00000000372
99,8960,249,451,9.95688e-06,0.00000000376
99.5,8960,250,450,1.00136e-05,0.0000000038
100,8960,251,449,1.00701e-05,0.00000000384
100.5,8960,252,448,1.01264e-05,0.00000000387
101,8960,253,447,1.01825e-05,0.00000000391
101.5,8960,254,446,1.02385e-05,0.00000000395
102,8960,255,446,1.02942e-05,0.00000000398
102.5,8960,256,445,1.03497e-05,0.00000000402
103,8960,257,444,1.04051e-05,0.00000000406
103.5,8960,258,443,1.04602e-05,0.00000000409
104,8960,259,442,1.05151e-05,0.00000000413
104.5,8960,260,441,1.05698e-05,0.00000000416
105,8960,261,441,1.06243e-05,0.0000000042
105.5,8960,262,440,1.06785e-05,0.00000000424
106,8960,262,439,1.07326e-05,0.00000000427
106.5,8960,263,438,1.07864e-05,0.00000000431
107,8960,264,438,1.084e-05,0.00000000435
107.5,8960,265,437,1.08934e-05,0.00000000438
108,8960,266,436,1.09465e-05,0.00000000442
108.5,8960,267,436,1.09994e-05,0.00000000446
109,8960,268,435,1.10521e-05,0.00000000449
109.5,8960,269,434,1.11046e-05,0.00000000453
110,8960,270,434,1.11568e-05,0.00000000457
110.5,8960,270,433,1.12088e-05,0.0000000046
111,8960,271,432,1.12605e-05,0.00000000464
111.5,8960,272,432,1.1312e-05,0.00000000468
112,8960,273,431,1.13633e-05,0.00000000471
112.5,8960,274,431,1.14143e-05,0.00000000475
113,8960,275,430,1.14651e-05,0.00000000479
113.5,8960,276,429,1.15156e-05,0.00000000482
114,8960,276,429,1.15658e-05,0.00000000486
114.5,8960,277,428,1.16158e-05,0.00000000489
115,8960,278,428,1.16656e-05,0.00000000493
115.5,8960,279,427,1.17151e-05,0.00000000497
116,8960,280,427,1.17643e-05,0.000000005
116.5,8960,280,426,1.18133e-05,0.00000000504
117,8960,281,426,1.1862e-05,0.00000000508
117.5,8960,282,425,1.19105e-05,0.00000000511
118,8960,283,425,1.19586e-05,0.00000000515
118.5,8960,284,424,1.20065e-05,0.00000000519
119,8960,284,424,1.20542e-05,0.00000000522
119.5,8960,285,424,1.21016e-05,0.00000000526
120,8960,286,423,1.21487e-05,0.0000000053
120.5,8960,287,423,1.21955e-05,0.00000000533
121,8960,287,422,1.2242e-05,0.00000000537
121.5,8960,288,422,1.22883e-05,0.0000000054
122,8960,289,422,1.23343e-05,0.00000000544
122.5,8960,290,421,1.238e-05,0.00000000548
123,8960,290,421,1.24254e-05,0.00000000551
123.5,8960,291,420,1.24706e-05,0.00000000555
124,8960,292,420,1.25154e-05,0.00000000559
124.5,8960,293,420,1.256e-05,0.00000000562
125,8960,293,419,1.26043e-05,0.00000000566
125.5,8960,294,419,1.26483e-05,0.00000000569
126,8960,295,419,1.2692e-05,0.00000000573
126.5,8960,295,419,1.27354e-05,0.00000000577
127,8960,296,418,1.27786e-05,0.0000000058
127.5,8960,297,418,1.28214e-05,0.00000000584
128,8960,297,418,1.28639e-05,0.00000000588
128.5,8960,298,417,1.29062e-05,0.00000000591
129,8960,299,417,1.29481e-05,0.00000000595
129.5,8960,299,417,1.29897e-05,0.00000000598
130,8960,300,417,1.30311e-05,0.00000000602
130.5,8960,301,416,1.30721e-05,0.00000000606
131,8960,301,416,1.31129e-05,0.00000000609
131.5,8960,302,416,1.31533e-05,0.00000000613
132,8960,303,416,1.31934e-05,0.00000000616
132.5,8960,303,416,1.32333e-05,0.0000000062
133,8960,304,415,1.32728e-05,0.00000000624
133.5,8960,305,415,1.3312e-05,0.00000000627
134,8960,305,415,1.33509e-05,0.00000000631
134.5,8960,306,415,1.33895e-05,0.00000000634
135,8960,306,415,1.34278e-05,0.00000000638
135.5,8960,307,414,1.34658e-05,0.00000000642
136,8960,308,414,1.35035e-05,0.00000000645
136.5,8960,308,414,1.35408e-05,0.00000000649
137,8960,309,414,1.35779e-05,0.00000000652
137.5,8960,310,414,1.36146e-05,0.00000000656
138,8960,310,414,1.3651e-05,0.0000000066
138.5,8960,311,414,1.36871e-05,0.00000000663
139,8960,311,413,1.37229e-05,0.00000000667
139.5,8960,312,413,1.37584e-05,0.0000000067
140,8960,312,413,1.37935e-05,0.00000000674
140.5,8960,313,413,1.38283e-05,0.00000000678
141,8960,314,413,1.38629e-05,0.00000000681
141.5,8960,314,413,1.38971e-05,0.00000000685
142,8960,315,413,1.39309e-05,0.00000000688
142.5,8960,315,413,1.39645e-05,0.00000000692
143,8960,316,413,1.39977e-05,0.00000000695
143.5,8960,316,413,1.40307e-05,0.00000000699
144,8960,317,413,1.40633e-05,0.00000000703
144.5,8960,317,412,1.40955e-05,0.00000000706
145,8960,318,412,1.41275e-05,0.0000000071
145.5,8960,318,412,1.41591e-05,0.00000000713
146,8960,319,412,1.41904e-05,0.00000000717
146.5,8960,319,412,1.42214e-05,0.0000000072
147,8960,320,412,1.42521e-05,0.00000000724
147.5,8960,321,412,1.42824e-05,0.00000000727
148,8960,321,412,1.43124e-05,0.00000000731
148.5,8960,322,412,1.43421e-05,0.00000000735
149,8960,322,412,1.43715e-05,0.00000000738
149.5,8960,323,412,1.44005e-05,0.00000000742
150,8960,323,412,1.44293e-05,0.00000000745
150.5,8960,323,412,1.44577e-05,0.00000000749
151,8960,324,412,1.44814e-05,0.00000000752
151.5,8960,324,411,1.45047e-05,0.00000000756
152,8960,325,411,1.45278e-05,0.00000000759
152.5,8960,325,411,1.45505e-05,0.00000000763
153,8960,326,411,1.45729e-05,0.00000000766
153.5,8960,326,411,1.4595e-05,0.0000000077
154,8960,327,410,1.46167e-05,0.00000000773
154.5,8960,327,410,1.46382e-05,0.00000000776
155,8960,328,410,1.46593e-05,0.0000000078
155.5,8960,328,410,1.46802e-05,0.00000000783
156,8960,329,410,1.47007e-05,0.00000000787
156.5,8960,329,410,1.47209e-05,0.0000000079
157,8960,329,409,1.47408e-05,0.00000000794
157.5,8960,330,409,1.47604e-05,0.00000000797
158,8960,330,409,1.47797e-05,0.00000000801
158.5,8960,331,409,1.47987e-05,0.00000000804
159,8960,331,409,1.48174e-05,0.00000000808
159.5,8960,332,409,1.48358e-05,0.00000000811
160,8960,332,409,1.48539e-05,0.00000000815
160.5,8960,332,408,1.48717e-05,0.00000000818
161,8960,333,408,1.48892e-05,0.00000000821
161.5,8960,333,408,1.49064e-05,0.00000000825
162,8960,334,408,1.49233e-05,0.00000000828
162.5,8960,334,408,1.49399e-05,0.00000000832
163,8960,334,408,1.49563e-05,0.00000000835
163.5,8960,335,408,1.49724e-05,0.00000000839
164,8960,335,407,1.49881e-05,0.00000000842
164.5,8960,336,407,1.50036e-05,0.00000000845
165,8960,336,407,1.50189e-05,0.00000000849
165.5,8960,336,407,1.50338e-05,0.00000000852
166,8960,337,407,1.50485e-05,0.00000000856
166.5,8960,337,407,1.50629e-05,0.00000000859
167,8960,337,407,1.5077e-05,0.00000000863
167.5,8960,338,407,1.50908e-05,0.00000000866
168,8960,338,407,1.51044e-05,0.00000000869
168.5,8960,338,406,1.51177e-05,0.00000000873
169,8960,339,406,1.51308e-05,0.00000000876
169.5,8960,339,406,1.51436e-05,0.0000000088
170,8960,340,406,1.51561e-05,0.00000000883
170.5,8960,340,406,1.51684e-05,0.00000000887
171,8960,340,406,1.51804e-05,0.0000000089
171.5,8960,341,406,1.51922e-05,0.00000000893
172,8960,341,406,1.52037e-05,0.00000000897
172.5,8960,341,406,1.5215e-05,0.000000009
173,8960,342,406,1.5226e-05,0.00000000904
173.5,8960,342,405,1.52368e-05,0.00000000907
174,8960,342,405,1.52473e-05,0.0000000091
174.5,8960,343,405,1.52576e-05,0.00000000914
175,8960,343,405,1.52677e-05,0.00000000917
175.5,8960,343,405,1.52775e-05,0.00000000921
176,8960,344,405,1.52871e-05,0.00000000924
176.5,8960,344,405,1.52964e-05,0.00000000927
177,8960,344,405,1.53055e-05,0.00000000931
177.5,8960,344,405,1.53144e-05,0.00000000934
178,8960,345,405,1.53231e-05,0.00000000938
178.5,8960,345,405,1.53315e-05,0.00000000941
179,8960,345,405,1.53398e-05,0.00000000944
179.5,8960,346,404,1.53478e-05,0.00000000948
180,8960,346,404,1.53556e-05,0.00000000951
180.5,8960,346,404,1.53631e-05,0.00000000955
181,8960,347,404,1.53705e-05,0.00000000958
181.5,8960,347,404,1.53776e-05,0.00000000961
182,8960,347,404,1.53846e-05,0.00000000965
182.5,8960,347,404,1.53913e-05,0.00000000968
183,8960,348,404,1.53979e-05,0.00000000971
183.5,8960,348,404,1.54042e-05,0.00000000975
184,8960,348,404,1.54104e-05,0.00000000978
184.5,8960,348,404,1.54163e-05,0.00000000982
185,8960,349,404,1.54221e-05,0.00000000985
185.5,8960,349,404,1.54276e-05,0.00000000988
186,8960,349,404,1.5433e-05,0.00000000992
186.5,8960,350,404,1.54382e-05,0.00000000995
187,8960,350,404,1.54432e-05,0.00000000998
187.5,8960,350,404,1.5448e-05,0.00000001
188,8960,350,403,1.54526e-05,0.0000000101
188.5,8960,351,403,1.54571e-05,0.0000000101
189,8960,351,403,1.54614e-05,0.0000000101
189.5,8960,351,403,1.54655e-05,0.0000000102
190,8960,351,403,1.54695e-05,0.0000000102
190.5,8960,352,403,1.54732e-05,0.0000000102
191,8960,352,403,1.54768e-05,0.0000000103
191.5,8960,352,403,1.54803e-05,0.0000000103
192,8960,352,403,1.54836e-05,0.0000000103
192.5,8960,353,403,1.54867e-05,0.0000000104
193,8960,353,403,1.54897e-05,0.0000000104
193.5,8960,353,403,1.54925e-05,0.0000000104
194,8960,353,403,1.54952e-05,0.0000000105
194.5,8960,354,403,1.54977e-05,0.0000000105
195,8960,354,403,1.55001e-05,0.0000000105
195.5,8960,354,403,1.55024e-05,0.0000000106
196,8960,354,403,1.55045e-05,0.0000000106
196.5,8960,354,403,1.55064e-05,0.0000000106
197,8960,355,403,1.55083e-05,0.0000000107
197.5,8960,355,403,1.55099e-05,0.0000000107
198,8960,355,403,1.55115e-05,0.0000000107
198.5,8960,355,403,1.55129e-05,0.0000000108
199,8960,356,403,1.55142e-05,0.0000000108
199.5,8960,356,403,1.55154e-05,0.0000000108
200,8960,356,402,1.55165e-05,0.0000000109
200.5,8960,356,402,1.55174e-05,0.0000000109
201,8960,356,402,1.55182e-05,0.0000000109
201.5,8960,357,402,1.55189e-05,0.000000011
202,8960,357,402,1.55195e-05,0.000000011
202.5,8960,357,402,1.552e-05,0.000000011
203,8960,357,402,1.55204e-05,0.0000000111
203.5,8960,358,402,1.55207e-05,0.0000000111
204,8960,358,402,1.55209e-05,0.0000000111
204.5,8960,358,402,1.55209e-05,0.0000000112
205,8960,358,402,1.55209e-05,0.0000000112
205.5,8960,359,402,1.55208e-05,0.0000000112
206,8960,359,402,1.55206e-05,0.0000000113
206.5,8960,359,402,1.55203e-05,0.0000000113
207,8960,359,402,1.55199e-05,0.0000000113
207.5,8960,359,402,1.55194e-05,0.0000000114
208,8960,360,402,1.55188e-05,0.0000000114
208.5,8960,360,401,1.55182e-05,0.0000000114
209,8960,360,401,1.55174e-05,0.0000000115
209.5,8960,360,401,1.55166e-05,0.0000000115
210,8960,360,401,1.55158e-05,0.0000000115
210.5,8960,361,401,1.55158e-05,0.0000000116
211,8960,361,401,1.55158e-05,0.0000000116
211.5,8960,361,401,1.55158e-05,0.0000000116
212,8960,361,401,1.55158e-05,0.0000000117
212.5,8960,362,401,1.55158e-05,0.0000000117
213,8960,362,401,1.55158e-05,0.0000000117
213.5,8960,362,401,1.55158e-05,0.0000000118
214,8960,362,401,1.55158e-05,0.0000000118
214.5,8960,362,401,1.55158e-05,0.0000000118
215,8960,363,401,1.55158e-05,0.0000000119
215.5,8960,363,401,1.55158e-05,0.0000000119
216,8960,363,401,1.55158e-05,0.0000000119
216.5,8960,363,401,1.55158e-05,0.000000012
217,8960,363,401,1.55158e-05,0.000000012
217.5,8960,363,400,1.55158e-05,0.000000012
218,8960,364,400,1.55158e-05,0.0000000121
218.5,8960,364,400,1.55158e-05,0.0000000121
219,8960,364,400,1.55158e-05,0.0000000121
219.5,8960,364,400,1.55158e-05,0.0000000122
220,8960,364,400,1.55158e-05,0.0000000122
220.5,8960,365,400,1.55158e-05,0.0000000122
221,8960,365,400,1.55158e-05,0.0000000123
221.5,8960,365,400,1.55158e-05,0.0000000123
222,8960,365,400,1.55158e-05,0.0000000123
222.5,8960,365,400,1.55158e-05,0.0000000124
223,8960,366,400,1.55158e-05,0.0000000124
223.5,8960,366,400,1.55158e-05,0.0000000124
224,8960,366,400,1.55158e-05,0.0000000125
224.5,8960,366,400,1.55158e-05,0.0000000125
225,8960,366,400,1.55158e-05,0.0000000125
225.5,8960,366,400,1.55158e-05,0.0000000126
226,8960,367,400,1.55158e-05,0.0000000126
226.5,8960,367,400,1.55158e-05,0.0000000126
227,8960,367,400,1.55158e-05,0.0000000127
227.5,8960,367,399,1.55158e-05,0.0000000127
228,8960,367,399,1.55158e-05,0.0000000127
228.5,8960,367,399,1.55158e-05,0.0000000128
229,8960,368,399,1.55158e-05,0.0000000128
229.5,8960,368,399,1.55158e-05,0.0000000128
230,8960,368,399,1.55158e-05,0.0000000129
230.5,8960,368,399,1.55158e-05,0.0000000129
231,8960,368,399,1.55158e-05,0.0000000129
231.5,8960,368,399,1.55158e-05,0.000000013
232,8960,369,399,1.55158e-05,0.000000013
232.5,8960,369,399,1.55158e-05,0.000000013
233,8960,369,399,1.55158e-05,0.0000000131
233.5,8960,369,399,1.55158e-05,0.0000000131
234,8960,369,399,1.55158e-05,0.0000000131
234.5,8960,369,399,1.55158e-05,0.0000000132
235,8960,370,399,1.55158e-05,0.0000000132
235.5,8960,370,399,1.55158e-05,0.0000000132
236,8960,370,399,1.55158e-05,0.0000000133
236.5,8960,370,399,1.55158e-05,0.0000000133
237,8960,370,399,1.55158e-05,0.0000000133
237.5,8960,370,399,1.55158e-05,0.0000000134
238,8960,371,399,1.55158e-05,0.0000000134
238.5,8960,371,399,1.55158e-05,0.0000000134
239,8960,371,398,1.55158e-05,0.0000000135
239.5,8960,371,398,1.55158e-05,0.0000000135
240,8960,371,398,1.55158e-05,0.0000000135
240.5,8960,371,398,1.55158e-05,0.0000000136
241,8960,371,398,1.55158e-05,0.0000000136
241.5,8960,372,398,1.55158e-05,0.0000000136
242,8960,372,398,1.55158e-05,0.0000000137
242.5,8960,372,398,1.55158e-05,0.0000000137
243,8960,372,398,1.55158e-05,0.0000000137
243.5,8960,372,398,1.55158e-05,0.0000000138
244,8960,372,398,1.55158e-05,0.0000000138
244.5,8960,372,398,1.55158e-05,0.0000000138
245,8960,373,398,1.55158e-05,0.0000000139
245.5,8960,373,398,1.55158e-05,0.0000000139
246,8960,373,398,1.55158e-05,0.0000000139
246.5,8960,373,398,1.55158e-05,0.000000014
247,8960,373,398,1.55158e-05,0.000000014
247.5,8960,373,398,1.55158e-05,0.000000014
248,8960,373,398,1.55158e-05,0.0000000141
248.5,8960,374,398,1.55158e-05,0.0000000141
249,8960,374,398,1.55158e-05,0.0000000141
249.5,8960,374,398,1.55158e-05,0.0000000142
250,8960,374,398,1.55158e-05,0.0000000142
250.5,8960,374,398,1.55158e-05,0.0000000142
251,8960,374,397,1.55158e-05,0.0000000143
251.5,8960,374,397,1.55158e-05,0.0000000143
252,8960,375,397,1.55158e-05,0.0000000143
252.5,8960,375,397,1.55158e-05,0.0000000144
253,8960,375,397,1.55158e-05,0.0000000144
253.5,8960,375,397,1.55158e-05,0.0000000144
254,8960,375,397,1.55158e-05,0.0000000145
254.5,8960,375,397,1.55158e-05,0.0000000145
255,8960,375,397,1.55158e-05,0.0000000145
255.5,8960,376,397,1.55158e-05,0.0000000146
256,8960,376,397,1.55158e-05,0.0000000146
256.5,8960,376,397,1.55158e-05,0.0000000146
257,8960,376,397,1.55158e-05,0.0000000147
257.5,8960,376,397,1.55158e-05,0.0000000147
258,8960,376,397,1.55158e-05,0.0000000147
258.5,8960,376,397,1.55158e-05,0.0000000148
259,8960,376,397,1.55158e-05,0.0000000148
259.5,8960,377,397,1.55158e-05,0.0000000148
260,8960,377,397,1.55158e-05,0.0000000149
260.5,8960,377,397,1.55158e-05,0.0000000149
261,8960,377,397,1.55158e-05,0.0000000149
261.5,8960,377,397,1.55158e-05,0.000000015
262,8960,377,397,1.55158e-05,0.000000015
262.5,8960,377,397,1.55158e-05,0.000000015
263,8960,378,397,1.55158e-05,0.0000000151
263.5,8960,378,396,1.55158e-05,0.0000000151
264,8960,378,396,1.55158e-05,0.0000000151
264.5,8960,378,396,1.55158e-05,0.0000000152
265,8960,378,396,1.55158e-05,0.0000000152
265.5,8960,378,396,1.55158e-05,0.0000000152
266,8960,378,396,1.55158e-05,0.0000000153
266.5,8960,378,396,1.55158e-05,0.0000000153
267,8960,379,396,1.55158e-05,0.0000000153
267.5,8960,379,396,1.55158e-05,0.0000000154
268,8960,379,396,1.55158e-05,0.0000000154
268.5,8960,379,396,1.55158e-05,0.0000000154
269,8960,379,396,1.55158e-05,0.0000000155
269.5,8960,379,396,1.55158e-05,0.0000000155
270,8960,379,396,1.55158e-05,0.0000000155
270.5,8960,379,396,1.55158e-05,0.0000000156
271,8960,380,396,1.55158e-05,0.0000000156
271.5,8960,380,396,1.55158e-05,0.0000000156
272,8960,380,396,1.55158e-05,0.0000000157
272.5,8960,380,396,1.55158e-05,0.0000000157
273,8960,380,396,1.55158e-05,0.0000000157
273.5,8960,380,396,1.55158e-05,0.0000000158
274,8960,380,396,1.55158e-05,0.0000000158
274.5,8960,380,396,1.55158e-05,0.0000000158
275,8960,380,396,1.55158e-05,0.0000000159
275.5,8960,381,396,1.55158e-05,0.0000000159
276,8960,381,396,1.55158e-05,0.0000000159
276.5,8960,381,395,1.55158e-05,0.000000016
277,8960,381,395,1.55158e-05,0.000000016
277.5,8960,381,395,1.55158e-05,0.000000016
278,8960,381,395,1.55158e-05,0.0000000161
278.5,8960,381,395,1.55158e-05,0.0000000161
279,8960,381,395,1.55158e-05,0.0000000161
279.5,8960,382,395,1.55158e-05,0.0000000162
280,8960,382,395,1.55158e-05,0.0000000162
280.5,8960,382,395,1.55158e-05,0.0000000162
281,8960,382,395,1.55158e-05,0.0000000163
281.5,8960,382,395,1.55158e-05,0.0000000163
282,8960,382,395,1.55158e-05,0.0000000163
282.5,8960,382,395,1.55158e-05,0.0000000164
283,8960,382,395,1.55158e-05,0.0000000164
283.5,8960,382,395,1.55158e-05,0.0000000164
284,8960,383,395,1.55158e-05,0.0000000165
284.5,8960,383,395,1.55158e-05,0.0000000165
285,8960,383,395,1.55158e-05,0.0000000165
285.5,8960,383,395,1.55158e-05,0.0000000166
286,8960,383,395,1.55158e-05,0.0000000166
286.5,8960,383,395,1.55158e-05,0.0000000166
287,8960,383,395,1.55158e-05,0.0000000167
287.5,8960,383,395,1.55158e-05,0.0000000167
288,8960,383,395,1.55158e-05,0.0000000167
288.5,8960,384,395,1.55158e-05,0.0000000168
289,8960,384,395,1.55158e-05,0.0000000168
289.5,8960,384,395,1.55158e-05,0.0000000168
290,8960,384,395,1.55158e-05,0.0000000169
290.5,8960,384,394,1.55158e-05,0.0000000169
291,8960,384,394,1.55158e-05,0.0000000169
291.5,8960,384,394,1.55158e-05,0.000000017
292,8960,384,394,1.55158e-05,0.000000017
292.5,8960,384,394,1.55158e-05,0.000000017
293,8960,385,394,1.55158e-05,0.0000000171
293.5,8960,385,394,1.55158e-05,0.0000000171
294,8960,385,394,1.55158e-05,0.0000000171
294.5,8960,385,394,1.55158e-05,0.0000000172
295,8960,385,394,1.55158e-05,0.0000000172
295.5,8960,385,394,1.55158e-05,0.0000000172
296,8960,385,394,1.55158e-05,0.0000000173
296.5,8960,385,394,1.55158e-05,0.0000000173
297,8960,385,394,1.55158e-05,0.0000000173
297.5,8960,385,394,1.55158e-05,0.0000000174
298,8960,386,394,1.55158e-05,0.0000000174
298.5,8960,386,394,1.55158e-05,0.0000000174
299,8960,386,394,1.55158e-05,0.0000000175
299.5,8960,386,394,1.55158e-05,0.0000000175
300,8960,386,394,1.55158e-05,0.0000000175