File: SolidProps/lib/EPOXY.csv
T/K,rho/(kg/m3),cp/(J/(kg.K)),K/(W/(m.K)),alpha_thermal/(1/K),resistivity/(ohm.m)
1,1150,0.03,0.016,1.31895e-06,0
1.5,1150,0.0635,0.0266,1.70815e-06,0
2,1150,0.17,0.0347,2.09332e-06,0
2.5,1150,0.361,0.0406,2.47447e-06,0
3,1150,0.648,0.0446,2.85163e-06,0
3.5,1150,1.04,0.0469,3.22485e-06,0
4,1150,1.56,0.0479,3.59413e-06,0
4.5,1150,2.2,0.0478,3.95951e-06,0
5,1150,3.27,0.0511,4.32101e-06,0
5.5,1150,4.42,0.0526,4.67867e-06,0
6,1150,5.72,0.0538,5.0325e-06,0
6.5,1150,7.18,0.0548,5.38254e-06,0
7,1150,8.8,0.0555,5.72882e-06,0
7.5,1150,10.6,0.056,6.07135e-06,0
8,1150,12.4,0.0563,6.41016e-06,0
8.5,1150,14.5,0.0565,6.74529e-06,0
9,1150,16.6,0.0565,7.07676e-06,0
9.5,1150,19,0.0555,7.40459e-06,0
10,1150,21.3,0.0562,7.72881e-06,0
10.5,1150,23.8,0.0569,8.04945e-06,0
11,1150,26.3,0.0576,8.36653e-06,0
11.5,1150,29,0.0584,8.68009e-06,0
12,1150,31.7,0.0591,8.99014e-06,0
12.5,1150,34.5,0.0598,9.29671e-06,0
13,1150,37.4,0.0605,9.59982e-06,0
13.5,1150,40.4,0.0612,9.89952e-06,0
14,1150,43.5,0.0619,1.01958e-05,0
14.5,1150,46.6,0.0626,1.04887e-05,0
15,1150,49.8,0.0633,1.07783e-05,0
15.5,1150,53,0.064,1.10645e-05,0
16,1150,56.3,0.0647,1.13475e-05,0
16.5,1150,59.7,0.0654,1.16271e-05,0
17,1150,63.1,0.0661,1.19036e-05,0
17.5,1150,66.5,0.0668,1.21768e-05,0
18,1150,69.9,0.0674,1.24468e-05,0
18.5,1150,73.4,0.0681,1.27136e-05,0
19,1150,76.9,0.0687,1.29773e-05,0
19.5,1150,80.7,0.0694,1.32379e-05,0
20,1150,84,0.07,1.34953e-05,0
20.5,1150,87.3,0.0706,1.37497e-05,0
21,1150,90.6,0.0711,1.40011e-05,0
21.5,1150,93.9,0.0716,1.42494e-05,0
22,1150,97.2,0.0722,1.44947e-05,0
22.5,1150,101,0.0727,1.47371e-05,0
23,1150,104,0.0732,1.49765e-05,0
23.5,1150,107,0.0737,1.5213e-05,0
24,1150,111,0.0742,1.54466e-05,0
24.5,1150,114,0.0747,1.56773e-05,0
25,1150,117,0.0752,1.59051e-05,0
25.5,1150,120,0.0757,1.61302e-05,0
26,1150,124,0.0762,1.63524e-05,0
26.5,1150,127,0.0767,1.65718e-05,0
27,1150,130,0.0772,1.67885e-05,0
27.5,1150,134,0.0776,1.70025e-05,0
28,1150,137,0.0781,1.72138e-05,0
28.5,1150,140,0.0786,1.74224e-05,0
29,1150,144,0.0791,1.76283e-05,0
29.5,1150,147,0.0795,1.78316e-05,0
30,1150,150,0.08,1.80322e-05,0
30.5,1150,153,0.0805,1.82303e-05,0
31,1150,156,0.081,1.84258e-05,0
31.5,1150,159,0.0815,1.86188e-05,0
32,1150,162,0.082,1.88093e-05,0
32.5,1150,165,0.0825,1.89973e-05,0
33,1150,168,0.083,1.91828e-05,0
33.5,1150,171,0.0835,1.93658e-05,0
34,1150,174,0.084,1.95464e-05,0
34.5,1150,177,0.0845,1.97247e-05,0
35,1150,180,0.085,1.99005e-05,0
35.5,1150,183,0.0855,2.0074e-05,0
36,1150,186,0.086,2.02451e-05,0
36.5,1150,189,0.0865,2.0414e-05,0
37,1150,192,0.087,2.05805e-05,0
37.5,1150,195,0.0875,2.07448e-05,0
38,1150,198,0.088,2.09069e-05,0
38.5,1150,201,0.0885,2.10667e-05,0
39,1150,204,0.089,2.12243e-05,0
39.5,1150,207,0.0895,2.13798e-05,0
40,1150,210,0.09,2.15331e-05,0
40.5,1150,213,0.0905,2.16843e-05,0
41,1150,216,0.091,2.18333e-05,0
41.5,1150,219,0.0915,2.19803e-05,0
42,1150,222,0.0921,2.21252e-05,0
42.5,1150,225,0.0926,2.22681e-05,0
43,1150,228,0.0931,2.24089e-05,0
43.5,1150,231,0.0936,2.25478e-05,0
44,1150,234,0.0941,2.26846e-05,0
44.5,1150,237,0.0946,2.28196e-05,0
45,1150,240,0.0951,2.29525e-05,0
45.5,1150,243,0.0956,2.30836e-05,0
46,1150,246,0.0961,2.32128e-05,0
46.5,1150,249,0.0966,2.33401e-05,0
47,1150,252,0.0971,2.34655e-05,0
47.5,1150,255,0.0976,2.35892e-05,0
48,1150,258,0.0981,2.3711e-05,0
48.5,1150,261,0.0986,2.3831e-05,0
49,1150,264,0.099,2.39493e-05,0
49.5,1150,267,0.0996,2.40658e-05,0
50,1150,270,0.1,2.41806e-05,0
50.5,1150,273,0.1,2.42937e-05,0
51,1150,276,0.101,2.44052e-05,0
51.5,1150,279,0.101,2.45149e-05,0
52,1150,282,0.102,2.46231e-05,0
52.5,1150,285,0.102,2.47296e-05,0
53,1150,288,0.103,2.48345e-05,0
53.5,1150,291,0.103,2.49378e-05,0
54,1150,294,0.103,2.50396e-05,0
54.5,1150,297,0.104,2.51398e-05,0
55,1150,300,0.104,2.52385e-05,0
55.5,1150,302,0.105,2.53358e-05,0
56,1150,305,0.105,2.54315e-05,0
56.5,1150,308,0.106,2.55258e-05,0
57,1150,311,0.106,2.56187e-05,0
57.5,1150,314,0.106,2.57101e-05,0
58,1150,317,0.107,2.58001e-05,0
58.5,1150,320,0.107,2.58888e-05,0
59,1150,322,0.108,2.59761e-05,0
59.5,1150,325,0.108,2.60621e-05,0
60,1150,328,0.108,2.61467e-05,0
60.5,1150,331,0.109,2.62301e-05,0
61,1150,333,0.109,2.63122e-05,0
61.5,1150,336,0.11,2.6393e-05,0
62,1150,338,0.11,2.64726e-05,0
62.5,1150,341,0.111,2.65509e-05,0
63,1150,344,0.111,2.66281e-05,0
63.5,1150,346,0.111,2.6704e-05,0
64,1150,349,0.112,2.67788e-05,0
64.5,1150,351,0.112,2.68525e-05,0
65,1150,354,0.113,2.6925e-05,0
65.5,1150,356,0.113,2.69965e-05,0
66,1150,359,0.114,2.70668e-05,0
66.5,1150,362,0.114,2.71361e-05,0
67,1150,364,0.114,2.72043e-05,0
67.5,1150,367,0.115,2.72715e-05,0
68,1150,369,0.115,2.73376e-05,0
68.5,1150,372,0.116,2.74028e-05,0
69,1150,375,0.116,2.7467e-05,0
69.5,1150,377,0.117,2.75302e-05,0
70,1150,380,0.117,2.75925e-05,0
70.5,1150,383,0.117,2.76539e-05,0
71,1150,386,0.118,2.77144e-05,0
71.5,1150,389,0.118,2.77739e-05,0
72,1150,392,0.119,2.78326e-05,0
72.5,1150,395,0.119,2.78905e-05,0
73,1150,398,0.119,2.79475e-05,0
73.5,1150,401,0.12,2.80037e-05,0
74,1150,404,0.12,2.80592e-05,0
74.5,1150,407,0.121,2.81138e-05,0
75,1150,410,0.121,2.81677e-05,0
75.5,1150,413,0.121,2.82208e-05,0
76,1150,416,0.122,2.82732e-05,0
76.5,1150,419,0.122,2.83249e-05,0
77,1150,422,0.123,2.83759e-05,0
77.5,1150,425,0.123,2.84262e-05,0
78,1150,428,0.123,2.84758e-05,0
78.5,1150,431,0.124,2.85249e-05,0
79,1150,434,0.124,2.85733e-05,0
79.5,1150,437,0.125,2.8621e-05,0
80,1150,440,0.125,2.86682e-05,0
80.5,1150,443,0.125,2.87148e-05,0
81,1150,445,0.126,2.87609e-05,0
81.5,1150,448,0.126,2.88064e-05,0
82,1150,450,0.127,2.88514e-05,0
82.5,1150,453,0.127,2.88959e-05,0
83,1150,456,0.128,2.89399e-05,0
83.5,1150,458,0.128,2.89834e-05,0
84,1150,461,0.129,2.90265e-05,0
84.5,1150,463,0.129,2.90691e-05,0
85,1150,466,0.13,2.91113e-05,0
85.5,1150,468,0.13,2.91531e-05,0
86,1150,471,0.131,2.91945e-05,0
86.5,1150,473,0.131,2.92355e-05,0
87,1150,475,0.132,2.92761e-05,0
87.5,1150,478,0.132,2.93164e-05,0
88,1150,480,0.133,2.93564e-05,0
88.5,1150,483,0.133,2.93961e-05,0
89,1150,485,0.134,2.94354e-05,0
89.5,1150,487,0.134,2.94745e-05,0
90,1150,490,0.135,2.95133e-05,0
90.5,1150,493,0.136,2.95519e-05,0
91,1150,495,0.136,2.95902e-05,0
91.5,1150,498,0.137,2.96283e-05,0
92,1150,500,0.137,2.96662e-05,0
92.5,1150,503,0.138,2.97039e-05,0
93,1150,505,0.139,2.97414e-05,0
93.5,1150,508,0.139,2.97787e-05,0
94,1150,510,0.14,2.98159e-05,0
94.5,1150,513,0.141,2.9853e-05,0
95,1150,515,0.141,2.989e-05,0
95.5,1150,518,0.142,2.99269e-05,0
96,1150,520,0.143,2.99636e-05,0
96.5,1150,523,0.143,3.00003e-05,0
97,1150,525,0.144,3.0037e-05,0
97.5,1150,528,0.145,3.00736e-05,0
98,1150,530,0.145,3.01101e-05,0
98.5,1150,533,0.146,3.01467e-05,0
99,1150,535,0.147,3.01832e-05,0
99.5,1150,538,0.147,3.02198e-05,0
100,1150,540,0.148,3.02564e-05,0
100.5,1150,542,0.149,3.0293e-05,0
101,1150,545,0.149,3.03297e-05,0
101.5,1150,547,0.15,3.03665e-05,0
102,1150,550,0.15,3.04033e-05,0
102.5,1150,552,0.151,3.04403e-05,0
103,1150,555,0.151,3.04773e-05,0
103.5,1150,557,0.152,3.05145e-05,0
104,1150,560,0.153,3.05518e-05,0
104.5,1150,562,0.153,3.05893e-05,0
105,1150,565,0.154,3.06269e-05,0
105.5,1150,567,0.154,3.06647e-05,0
106,1150,570,0.155,3.07027e-05,0
106.5,1150,572,0.155,3.0741e-05,0
107,1150,575,0.156,3.07794e-05,0
107.5,1150,577,0.156,3.0818e-05,0
108,1150,580,0.157,3.08569e-05,0
108.5,1150,582,0.157,3.08961e-05,0
109,1150,584,0.158,3.09355e-05,0
109.5,1150,587,0.158,3.09753e-05,0
110,1150,589,0.159,3.10153e-05,0
110.5,1150,592,0.159,3.10556e-05,0
111,1150,594,0.16,3.10963e-05,0
111.5,1150,597,0.16,3.11372e-05,0
112,1150,599,0.161,3.11786e-05,0
112.5,1150,602,0.161,3.12202e-05,0
113,1150,604,0.162,3.12623e-05,0
113.5,1150,607,0.162,3.13047e-05,0
114,1150,609,0.163,3.13476e-05,0
114.5,1150,611,0.163,3.13908e-05,0
115,1150,614,0.164,3.14345e-05,0
115.5,1150,616,0.164,3.14786e-05,0
116,1150,619,0.165,3.15231e-05,0
116.5,1150,621,0.165,3.15682e-05,0
117,1150,624,0.165,3.16136e-05,0
117.5,1150,626,0.166,3.16596e-05,0
118,1150,628,0.166,3.1706e-05,0
118.5,1150,631,0.167,3.1753e-05,0
119,1150,633,0.167,3.18004e-05,0
119.5,1150,636,0.168,3.18484e-05,0
120,1150,638,0.168,3.18969e-05,0
120.5,1150,641,0.168,3.1946e-05,0
121,1150,643,0.169,3.19957e-05,0
121.5,1150,645,0.169,3.20459e-05,0
122,1150,648,0.17,3.20967e-05,0
122.5,1150,650,0.17,3.21481e-05,0
123,1150,653,0.17,3.22e-05,0
123.5,1150,655,0.171,3.22527e-05,0
124,1150,657,0.171,3.23059e-05,0
124.5,1150,660,0.171,3.23598e-05,0
125,1150,662,0.172,3.24143e-05,0
125.5,1150,665,0.172,3.24695e-05,0
126,1150,667,0.173,3.25253e-05,0
126.5,1150,669,0.173,3.25819e-05,0
127,1150,672,0.173,3.26391e-05,0
127.5,1150,674,0.174,3.2697e-05,0
128,1150,677,0.174,3.27557e-05,0
128.5,1150,679,0.174,3.2815e-05,0
129,1150,681,0.175,3.28751e-05,0
129.5,1150,684,0.175,3.2936e-05,0
130,1150,686,0.175,3.29976e-05,0
130.5,1150,689,0.176,3.30599e-05,0
131,1150,691,0.176,3.3123e-05,0
131.5,1150,693,0.176,3.31869e-05,0
132,1150,696,0.177,3.32516e-05,0
132.5,1150,698,0.177,3.33172e-05,0
133,1150,700,0.177,3.33835e-05,0
133.5,1150,703,0.178,3.34506e-05,0
134,1150,705,0.178,3.35186e-05,0
134.5,1150,708,0.178,3.35874e-05,0
135,1150,710,0.178,3.36571e-05,0
135.5,1150,712,0.179,3.37276e-05,0
136,1150,715,0.179,3.3799e-05,0
136.5,1150,717,0.179,3.38712e-05,0
137,1150,719,0.18,3.39444e-05,0
137.5,1150,722,0.18,3.40184e-05,0
138,1150,724,0.18,3.40934e-05,0
138.5,1150,726,0.18,3.41693e-05,0
139,1150,729,0.181,3.42461e-05,0
139.5,1150,731,0.181,3.43238e-05,0
140,1150,733,0.181,3.44024e-05,0
140.5,1150,736,0.182,3.44821e-05,0
141,1150,738,0.182,3.45626e-05,0
141.5,1150,740,0.182,3.46442e-05,0
142,1150,743,0.182,3.47267e-05,0
142.5,1150,745,0.183,3.48102e-05,0
143,1150,748,0.183,3.48947e-05,0
143.5,1150,750,0.183,3.49802e-05,0
144,1150,752,0.183,3.50667e-05,0
144.5,1150,754,0.184,3.51542e-05,0
145,1150,757,0.184,3.52427e-05,0
145.5,1150,759,0.184,3.53323e-05,0
146,1150,761,0.184,3.54229e-05,0
146.5,1150,764,0.184,3.55145e-05,0
147,1150,766,0.185,3.56073e-05,0
147.5,1150,768,0.185,3.5701e-05,0
148,1150,771,0.185,3.57959e-05,0
148.5,1150,773,0.185,3.58918e-05,0
149,1150,775,0.186,3.59888e-05,0
149.5,1150,778,0.186,3.60869e-05,0
150,1150,780,0.186,3.61861e-05,0
150.5,1150,782,0.186,3.62865e-05,0
151,1150,785,0.186,3.63879e-05,0
151.5,1150,787,0.187,3.64904e-05,0
152,1150,789,0.187,3.65941e-05,0
152.5,1150,792,0.187,3.66989e-05,0
153,1150,794,0.187,3.68049e-05,0
153.5,1150,796,0.188,3.6912e-05,0
154,1150,798,0.188,3.70203e-05,0
154.5,1150,801,0.188,3.71297e-05,0
155,1150,803,0.188,3.72404e-05,0
155.5,1150,805,0.188,3.73521e-05,0
156,1150,808,0.189,3.74651e-05,0
156.5,1150,810,0.189,3.75793e-05,0
157,1150,812,0.189,3.76947e-05,0
157.5,1150,815,0.189,3.78112e-05,0
158,1150,817,0.189,3.7929e-05,0
158.5,1150,819,0.189,3.8048e-05,0
159,1150,821,0.19,3.81682e-05,0
159.5,1150,824,0.19,3.82896e-05,0
160,1150,826,0.19,3.84123e-05,0
160.5,1150,828,0.19,3.85362e-05,0
161,1150,830,0.19,3.86614e-05,0
161.5,1150,833,0.191,3.87878e-05,0
162,1150,835,0.191,3.89155e-05,0
162.5,1150,837,0.191,3.90445e-05,0
163,1150,840,0.191,3.91747e-05,0
163.5,1150,842,0.191,3.93061e-05,0
164,1150,844,0.191,3.94389e-05,0
164.5,1150,846,0.192,3.9573e-05,0
165,1150,849,0.192,3.97083e-05,0
165.5,1150,851,0.192,3.98449e-05,0
166,1150,853,0.192,3.99829e-05,0
166.5,1150,855,0.192,4.01221e-05,0
167,1150,858,0.192,4.02627e-05,0
167.5,1150,860,0.193,4.04046e-05,0
168,1150,862,0.193,4.05478e-05,0
168.5,1150,864,0.193,4.06923e-05,0
169,1150,866,0.193,4.08382e-05,0
169.5,1150,869,0.193,4.09854e-05,0
170,1150,871,0.193,4.11339e-05,0
170.5,1150,873,0.193,4.12838e-05,0
171,1150,875,0.194,4.1435e-05,0
171.5,1150,878,0.194,4.15876e-05,0
172,1150,880,0.194,4.17415e-05,0
172.5,1150,882,0.194,4.18969e-05,0
173,1150,884,0.194,4.20535e-05,0
173.5,1150,887,0.194,4.22116e-05,0
174,1150,889,0.194,4.2371e-05,0
174.5,1150,891,0.195,4.25318e-05,0
175,1150,893,0.195,4.2694e-05,0
175.5,1150,895,0.195,4.28576e-05,0
176,1150,898,0.195,4.30226e-05,0
176.5,1150,900,0.195,4.31889e-05,0
177,1150,902,0.195,4.33567e-05,0
177.5,1150,904,0.195,4.35259e-05,0
178,1150,906,0.195,4.36965e-05,0
178.5,1150,908,0.196,4.38684e-05,0
179,1150,911,0.196,4.40418e-05,0
179.5,1150,913,0.196,4.42167e-05,0
180,1150,915,0.196,4.43929e-05,0
180.5,1150,917,0.196,4.45706e-05,0
181,1150,919,0.196,4.47497e-05,0
181.5,1150,922,0.196,4.49302e-05,0
182,1150,924,0.196,4.51121e-05,0
182.5,1150,926,0.197,4.52955e-05,0
183,1150,928,0.197,4.54804e-05,0
183.5,1150,930,0.197,4.56666e-05,0
184,1150,932,0.197,4.58543e-05,0
184.5,1150,935,0.197,4.60435e-05,0
185,1150,937,0.197,4.62341e-05,0
185.5,1150,939,0.197,4.64262e-05,0
186,1150,941,0.197,4.66197e-05,0
186.5,1150,943,0.197,4.68147e-05,0
187,1150,945,0.197,4.70111e-05,0
187.5,1150,947,0.198,4.7209e-05,0
188,1150,950,0.198,4.74084e-05,0
188.5,1150,952,0.198,4.76092e-05,0
189,1150,954,0.198,4.78116e-05,0
189.5,1150,956,0.198,4.80153e-05,0
190,1150,958,0.198,4.82206e-05,0
190.5,1150,960,0.198,4.84273e-05,0
191,1150,962,0.198,4.86355e-05,0
191.5,1150,964,0.198,4.88452e-05,0
192,1150,967,0.199,4.90563e-05,0
192.5,1150,969,0.199,4.9269e-05,0
193,1150,971,0.199,4.94831e-05,0
193.5,1150,973,0.199,4.96987e-05,0
194,1150,975,0.199,4.99158e-05,0
194.5,1150,977,0.199,5.01344e-05,0
195,1150,979,0.199,5.03545e-05,0
195.5,1150,981,0.199,5.0576e-05,0
196,1150,983,0.199,5.07991e-05,0
196.5,1150,985,0.199,5.10236e-05,0
197,1150,988,0.199,5.12497e-05,0
197.5,1150,990,0.2,5.14772e-05,0
198,1150,992,0.2,5.17062e-05,0
198.5,1150,994,0.2,5.19368e-05,0
199,1150,996,0.2,5.21688e-05,0
199.5,1150,998,0.2,5.24023e-05,0
200,1150,1000,0.2,5.26373e-05,0
200.5,1150,1000,0.2,5.28739e-05,0
201,1150,1000,0.2,5.31119e-05,0
201.5,1150,1010,0.2,5.33514e-05,0
202,1150,1010,0.201,5.35924e-05,0
202.5,1150,1010,0.201,5.38349e-05,0
203,1150,1010,0.201,5.4079e-05,0
203.5,1150,1010,0.201,5.43245e-05,0
204,1150,1020,0.201,5.45715e-05,0
204.5,1150,1020,0.201,5.482e-05,0
205,1150,1020,0.201,5.507e-05,0
205.5,1150,1020,0.201,5.53216e-05,0
206,1150,1020,0.202,5.55746e-05,0
206.5,1150,1030,0.202,5.58291e-05,0
207,1150,1030,0.202,5.60851e-05,0
207.5,1150,1030,0.202,5.63427e-05,0
208,1150,1030,0.202,5.66017e-05,0
208.5,1150,1030,0.202,5.68622e-05,0
209,1150,1040,0.202,5.71242e-05,0
209.5,1150,1040,0.202,5.73878e-05,0
210,1150,1040,0.203,5.76528e-05,0
210.5,1150,1040,0.203,5.79193e-05,0
211,1150,1040,0.203,5.81873e-05,0
211.5,1150,1050,0.203,5.84568e-05,0
212,1150,1050,0.203,5.87278e-05,0
212.5,1150,1050,0.203,5.90003e-05,0
213,1150,1050,0.203,5.92742e-05,0
213.5,1150,1050,0.203,5.95497e-05,0
214,1150,1060,0.204,5.98267e-05,0
214.5,1150,1060,0.204,6.01051e-05,0
215,1150,1060,0.204,6.0385e-05,0
215.5,1150,1060,0.204,6.06664e-05,0
216,1150,1060,0.204,6.09493e-05,0
216.5,1150,1070,0.204,6.12337e-05,0
217,1150,1070,0.204,6.15196e-05,0
217.5,1150,1070,0.204,6.18069e-05,0
218,1150,1070,0.205,6.20957e-05,0
218.5,1150,1070,0.205,6.2386e-05,0
219,1150,1080,0.205,6.26778e-05,0
219.5,1150,1080,0.205,6.2971e-05,0
220,1150,1080,0.205,6.32657e-05,0
220.5,1150,1080,0.205,6.35618e-05,0
221,1150,1080,0.205,6.38594e-05,0
221.5,1150,1080,0.205,6.41585e-05,0
222,1150,1090,0.205,6.44591e-05,0
222.5,1150,1090,0.206,6.47611e-05,0
223,1150,1090,0.206,6.50645e-05,0
223.5,1150,1090,0.206,6.53694e-05,0
224,1150,1090,0.206,6.56758e-05,0
224.5,1150,1100,0.206,6.59836e-05,0
225,1150,1100,0.206,6.62928e-05,0
225.5,1150,1100,0.206,6.66035e-05,0
226,1150,1100,0.206,6.69156e-05,0
226.5,1150,1100,0.206,6.72292e-05,0
227,1150,1110,0.207,6.75442e-05,0
227.5,1150,1110,0.207,6.78606e-05,0
228,1150,1110,0.207,6.81784e-05,0
228.5,1150,1110,0.207,6.84977e-05,0
229,1150,1110,0.207,6.88184e-05,0
229.5,1150,1120,0.207,6.91405e-05,0
230,1150,1120,0.207,6.9464e-05,0
230.5,1150,1120,0.207,6.97889e-05,0
231,1150,1120,0.207,7.01152e-05,0
231.5,1150,1120,0.208,7.04429e-05,0
232,1150,1120,0.208,7.07721e-05,0
232.5,1150,1130,0.208,7.11026e-05,0
233,1150,1130,0.208,7.14345e-05,0
233.5,1150,1130,0.208,7.17678e-05,0
234,1150,1130,0.208,7.21024e-05,0
234.5,1150,1130,0.208,7.24385e-05,0
235,1150,1140,0.208,7.27759e-05,0
235.5,1150,1140,0.208,7.31147e-05,0
236,1150,1140,0.208,7.34549e-05,0
236.5,1150,1140,0.209,7.37964e-05,0
237,1150,1140,0.209,7.41393e-05,0
237.5,1150,1140,0.209,7.44835e-05,0
238,1150,1150,0.209,7.48291e-05,0
238.5,1150,1150,0.209,7.5176e-05,0
239,1150,1150,0.209,7.55243e-05,0
239.5,1150,1150,0.209,7.58739e-05,0
240,1150,1150,0.209,7.62248e-05,0
240.5,1150,1160,0.209,7.65771e-05,0
241,1150,1160,0.209,7.69306e-05,0
241.5,1150,1160,0.21,7.72855e-05,0
242,1150,1160,0.21,7.76417e-05,0
242.5,1150,1160,0.21,7.79992e-05,0
243,1150,1160,0.21,7.8358e-05,0
243.5,1150,1170,0.21,7.87181e-05,0
244,1150,1170,0.21,7.90795e-05,0
244.5,1150,1170,0.21,7.94421e-05,0
245,1150,1170,0.21,7.98061e-05,0
245.5,1150,1170,0.21,8.01713e-05,0
246,1150,1180,0.21,8.05378e-05,0
246.5,1150,1180,0.21,8.09055e-05,0
247,1150,1180,0.21,8.12745e-05,0
247.5,1150,1180,0.211,8.16447e-05,0
248,1150,1180,0.211,8.20162e-05,0
248.5,1150,1180,0.211,8.23889e-05,0
249,1150,1190,0.211,8.27629e-05,0
249.5,1150,1190,0.211,8.31381e-05,0
250,1150,1190,0.211,8.35145e-05,0
250.5,1150,1190,0.211,8.38921e-05,0
251,1150,1190,0.211,8.42709e-05,0
251.5,1150,1200,0.211,8.46509e-05,0
252,1150,1200,0.211,8.50322e-05,0
252.5,1150,1200,0.211,8.54146e-05,0
253,1150,1200,0.211,8.57981e-05,0
253.5,1150,1200,0.212,8.61829e-05,0
254,1150,1200,0.212,8.65688e-05,0
254.5,1150,1210,0.212,8.69559e-05,0
255,1150,1210,0.212,8.73442e-05,0
255.5,1150,1210,0.212,8.77335e-05,0
256,1150,1210,0.212,8.81241e-05,0
256.5,1150,1210,0.212,8.85157e-05,0
257,1150,1210,0.212,8.89085e-05,0
257.5,1150,1220,0.212,8.93024e-05,0
258,1150,1220,0.212,8.96975e-05,0
258.5,1150,1220,0.212,9.00936e-05,0
259,1150,1220,0.212,9.04908e-05,0
259.5,1150,1220,0.212,9.08891e-05,0
260,1150,1230,0.212,9.12885e-05,0
260.5,1150,1230,0.213,9.1689e-05,0
261,1150,1230,0.213,9.20905e-05,0
261.5,1150,1230,0.213,9.24931e-05,0
262,1150,1230,0.213,9.28968e-05,0
262.5,1150,1230,0.213,9.33014e-05,0
263,1150,1240,0.213,9.37072e-05,0
263.5,1150,1240,0.213,9.41139e-05,0
264,1150,1240,0.213,9.45217e-05,0
264.5,1150,1240,0.213,9.49305e-05,0
265,1150,1240,0.213,9.53403e-05,0
265.5,1150,1240,0.213,9.57511e-05,0
266,1150,1250,0.213,9.61628e-05,0
266.5,1150,1250,0.213,9.65756e-05,0
267,1150,1250,0.213,9.69893e-05,0
267.5,1150,1250,0.213,9.7404e-05,0
268,1150,1250,0.213,9.78196e-05,0
268.5,1150,1250,0.214,9.82362e-05,0
269,1150,1260,0.214,9.86537e-05,0
269.5,1150,1260,0.214,9.90722e-05,0
270,1150,1260,0.214,9.94915e-05,0
270.5,1150,1260,0.214,9.99118e-05,0
271,1150,1260,0.214,0.000100333,0
271.5,1150,1260,0.214,0.000100755,0
272,1150,1270,0.214,0.000101178,0
272.5,1150,1270,0.214,0.000101602,0
273,1150,1270,0.214,0.000102027,0
273.5,1150,1270,0.214,0.000102452,0
274,1150,1270,0.214,0.000102878,0
274.5,1150,1280,0.214,0.000103306,0
275,1150,1280,0.214,0.000103734,0
275.5,1150,1280,0.214,0.000104163,0
276,1150,1280,0.214,0.000104592,0
276.5,1150,1280,0.214,0.000105023,0
277,1150,1280,0.214,0.000105454,0
277.5,1150,1290,0.214,0.000105886,0
278,1150,1290,0.214,0.000106319,0
278.5,1150,1290,0.215,0.000106752,0
279,1150,1290,0.215,0.000107187,0
279.5,1150,1290,0.215,0.000107622,0
280,1150,1290,0.215,0.000108057,0
280.5,1150,1300,0.215,0.000108494,0
281,1150,1300,0.215,0.000108931,0
281.5,1150,1300,0.215,0.000109369,0
282,1150,1300,0.215,0.000109808,0
282.5,1150,1300,0.215,0.000110247,0
283,1150,1300,0.215,0.000110687,0
283.5,1150,1310,0.215,0.000111127,0
284,1150,1310,0.215,0.000111569,0
284.5,1150,1310,0.215,0.00011201,0
285,1150,1310,0.215,0.000112453,0
285.5,1150,1310,0.215,0.000112896,0
286,1150,1310,0.215,0.00011334,0
286.5,1150,1320,0.215,0.000113784,0
287,1150,1320,0.215,0.000114229,0
287.5,1150,1320,0.215,0.000114674,0
288,1150,1320,0.215,0.00011512,0
288.5,1150,1320,0.215,0.000115567,0
289,1150,1320,0.215,0.000116014,0
289.5,1150,1330,0.215,0.000116461,0
290,1150,1330,0.215,0.000116909,0
290.5,1150,1330,0.215,0.000117358,0
291,1150,1330,0.216,0.000117807,0
291.5,1150,1330,0.216,0.000118256,0
292,1150,1330,0.216,0.000118706,0
292.5,1150,1340,0.216,0.000119157,0
293,1150,1340,0.216,0.000119608,0
293.5,1150,1340,0.216,0.000120059,0
294,1150,1340,0.216,0.000120511,0
294.5,1150,1340,0.216,0.000120963,0
295,1150,1340,0.216,0.000121415,0
295.5,1150,1350,0.216,0.000121868,0
296,1150,1350,0.216,0.000122321,0
296.5,1150,1350,0.216,0.000122775,0
297,1150,1350,0.216,0.000123229,0
297.5,1150,1350,0.216,0.000123683,0
298,1150,1350,0.216,0.000124138,0
298.5,1150,1360,0.216,0.000124593,0
299,1150,1360,0.216,0.000125048,0
299.5,1150,1360,0.216,0.000125503,0
300,1150,1360,0.216,0.000125959,0