File: SolidProps/lib/STAINLESS_STEEL_310L.csv
T/K,rho/(kg/m3),cp/(J/(kg.K)),K/(W/(m.K)),alpha_thermal/(1/K),resistivity/(ohm.m)
1,8027,0.62,0.0816,0,0.000000685
1.5,8027,0.89,0.125,0,0.000000684
2,8027,1.16,0.17,0,0.000000684
2.5,8027,1.43,0.216,0,0.000000684
3,8027,1.7,0.262,0,0.000000684
3.5,8027,1.97,0.31,0,0.000000684
4,8027,2.24,0.357,0,0.000000683
4.5,8027,2.51,0.406,0,0.000000683
5,8027,2.76,0.454,0,0.000000683
5.5,8027,3.01,0.504,0,0.000000683
6,8027,3.26,0.553,0,0.000000683
6.5,8027,3.5,0.603,0,0.000000683
7,8027,3.75,0.654,0,0.000000682
7.5,8027,4,0.704,0,0.000000682
8,8027,4.24,0.756,0,0.000000682
8.5,8027,4.49,0.807,0,0.000000682
9,8027,4.74,0.859,0,0.000000682
9.5,8027,5,0.912,0,0.000000682
10,8027,5.25,0.963,0,0.000000681
10.5,8027,5.5,1.01,0,0.000000681
11,8027,5.76,1.07,0,0.000000681
11.5,8027,6.02,1.12,0,0.000000681
12,8027,6.28,1.17,0,0.000000681
12.5,8027,6.56,1.22,0,0.000000681
13,8027,6.84,1.27,0,0.000000681
13.5,8027,7.13,1.33,0,0.000000681
14,8027,7.43,1.38,0,0.000000681
14.5,8027,7.74,1.43,0,0.00000068
15,8027,8.06,1.48,0,0.00000068
15.5,8027,8.4,1.54,0,0.00000068
16,8027,8.75,1.59,0,0.00000068
16.5,8027,9.11,1.64,0,0.00000068
17,8027,9.49,1.7,0,0.00000068
17.5,8027,9.88,1.75,0,0.00000068
18,8027,10.3,1.8,1.32125e-08,0.000000681
18.5,8027,10.7,1.86,4.53318e-08,0.000000681
19,8027,11.2,1.91,7.87248e-08,0.000000681
19.5,8027,11.7,1.96,1.13361e-07,0.000000681
20,8027,12.1,2.02,1.49212e-07,0.000000681
20.5,8027,12.6,2.08,1.86247e-07,0.000000681
21,8027,13.1,2.13,2.24437e-07,0.000000681
21.5,8027,13.6,2.19,2.63754e-07,0.000000682
22,8027,14.2,2.24,3.0417e-07,0.000000682
22.5,8027,14.8,2.3,3.45657e-07,0.000000682
23,8027,15.4,2.36,3.88187e-07,0.000000683
23.5,8027,16,2.41,4.31732e-07,0.000000683
24,8027,16.7,2.47,4.76268e-07,0.000000683
24.5,8027,17.4,2.52,5.21766e-07,0.000000684
25,8027,18.1,2.58,5.68201e-07,0.000000684
25.5,8027,18.9,2.64,6.15547e-07,0.000000685
26,8027,19.7,2.69,6.63779e-07,0.000000685
26.5,8027,20.5,2.75,7.12872e-07,0.000000685
27,8027,21.4,2.8,7.62801e-07,0.000000686
27.5,8027,22.4,2.85,8.13541e-07,0.000000686
28,8027,23.3,2.91,8.6507e-07,0.000000687
28.5,8027,24.3,2.96,9.17363e-07,0.000000687
29,8027,25.4,3.02,9.70397e-07,0.000000688
29.5,8027,26.2,3.07,1.02415e-06,0.000000688
30,8027,27.7,3.12,1.0786e-06,0.000000688
30.5,8027,29.2,3.17,1.13372e-06,0.000000689
31,8027,30.7,3.22,1.18949e-06,0.000000689
31.5,8027,32.3,3.26,1.24589e-06,0.00000069
32,8027,33.9,3.31,1.3029e-06,0.00000069
32.5,8027,35.5,3.36,1.36049e-06,0.00000069
33,8027,37.2,3.41,1.41866e-06,0.000000691
33.5,8027,39,3.45,1.47736e-06,0.000000691
34,8027,40.7,3.5,1.5366e-06,0.000000691
34.5,8027,42.5,3.54,1.59634e-06,0.000000692
35,8027,44.3,3.59,1.65656e-06,0.000000692
35.5,8027,46.2,3.63,1.71726e-06,0.000000693
36,8027,48.1,3.68,1.7784e-06,0.000000693
36.5,8027,49.9,3.72,1.83997e-06,0.000000693
37,8027,51.8,3.76,1.90196e-06,0.000000694
37.5,8027,53.7,3.81,1.96434e-06,0.000000694
38,8027,55.7,3.85,2.02709e-06,0.000000695
38.5,8027,57.6,3.89,2.0902e-06,0.000000695
39,8027,59.5,3.94,2.15365e-06,0.000000695
39.5,8027,61.7,3.98,2.21743e-06,0.000000696
40,8027,63.4,4.02,2.28152e-06,0.000000696
40.5,8027,65.2,4.07,2.3459e-06,0.000000696
41,8027,66.9,4.12,2.41055e-06,0.000000697
41.5,8027,68.6,4.16,2.47546e-06,0.000000697
42,8027,70.4,4.21,2.54062e-06,0.000000698
42.5,8027,72.1,4.25,2.60601e-06,0.000000698
43,8027,73.9,4.3,2.67161e-06,0.000000698
43.5,8027,75.6,4.34,2.73741e-06,0.000000699
44,8027,77.3,4.38,2.80339e-06,0.000000699
44.5,8027,79.1,4.43,2.86955e-06,0.000000699
45,8027,80.8,4.47,2.93586e-06,0.0000007
45.5,8027,82.5,4.52,3.00232e-06,0.0000007
46,8027,84.3,4.56,3.0689e-06,0.000000701
46.5,8027,86,4.6,3.1356e-06,0.000000701
47,8027,87.7,4.64,3.20241e-06,0.000000701
47.5,8027,89.5,4.69,3.2693e-06,0.000000702
48,8027,91.2,4.73,3.33628e-06,0.000000702
48.5,8027,93,4.77,3.40332e-06,0.000000702
49,8027,94.7,4.81,3.47041e-06,0.000000703
49.5,8027,96.4,4.85,3.53755e-06,0.000000703
50,8027,98.2,4.89,3.60472e-06,0.000000704
50.5,8027,100,4.93,3.6719e-06,0.000000704
51,8027,102,4.96,3.7391e-06,0.000000704
51.5,8027,104,5,3.80629e-06,0.000000705
52,8027,105,5.03,3.87347e-06,0.000000705
52.5,8027,107,5.07,3.94063e-06,0.000000706
53,8027,109,5.1,4.00775e-06,0.000000706
53.5,8027,111,5.14,4.07483e-06,0.000000706
54,8027,113,5.17,4.14186e-06,0.000000707
54.5,8027,115,5.2,4.20882e-06,0.000000707
55,8027,116,5.24,4.27571e-06,0.000000707
55.5,8027,118,5.27,4.34252e-06,0.000000708
56,8027,120,5.3,4.40924e-06,0.000000708
56.5,8027,122,5.33,4.47586e-06,0.000000709
57,8027,124,5.36,4.54237e-06,0.000000709
57.5,8027,125,5.39,4.60876e-06,0.000000709
58,8027,127,5.43,4.67503e-06,0.00000071
58.5,8027,129,5.46,4.74117e-06,0.00000071
59,8027,131,5.49,4.80717e-06,0.00000071
59.5,8027,132,5.52,4.87302e-06,0.000000711
60,8027,134,5.55,4.93871e-06,0.000000711
60.5,8027,136,5.58,5.00425e-06,0.000000712
61,8027,138,5.61,5.06961e-06,0.000000712
61.5,8027,139,5.64,5.1348e-06,0.000000712
62,8027,141,5.67,5.1998e-06,0.000000713
62.5,8027,143,5.7,5.26462e-06,0.000000713
63,8027,145,5.73,5.32924e-06,0.000000713
63.5,8027,146,5.76,5.39365e-06,0.000000714
64,8027,148,5.79,5.45786e-06,0.000000714
64.5,8027,150,5.82,5.52186e-06,0.000000715
65,8027,151,5.85,5.58564e-06,0.000000715
65.5,8027,153,5.88,5.64919e-06,0.000000715
66,8027,155,5.91,5.71251e-06,0.000000716
66.5,8027,156,5.93,5.7756e-06,0.000000716
67,8027,158,5.96,5.83844e-06,0.000000717
67.5,8027,160,5.99,5.90104e-06,0.000000717
68,8027,161,6.02,5.96339e-06,0.000000717
68.5,8027,163,6.05,6.02549e-06,0.000000718
69,8027,164,6.07,6.08733e-06,0.000000718
69.5,8027,166,6.1,6.1489e-06,0.000000718
70,8027,168,6.13,6.21021e-06,0.000000719
70.5,8027,169,6.15,6.27124e-06,0.000000719
71,8027,171,6.18,6.332e-06,0.00000072
71.5,8027,172,6.21,6.39248e-06,0.00000072
72,8027,174,6.23,6.45268e-06,0.00000072
72.5,8027,175,6.26,6.51259e-06,0.000000721
73,8027,177,6.28,6.57222e-06,0.000000721
73.5,8027,179,6.31,6.63155e-06,0.000000721
74,8027,180,6.33,6.69059e-06,0.000000722
74.5,8027,182,6.36,6.74933e-06,0.000000722
75,8027,183,6.38,6.80776e-06,0.000000723
75.5,8027,185,6.4,6.8659e-06,0.000000723
76,8027,186,6.43,6.92373e-06,0.000000723
76.5,8027,188,6.45,6.98125e-06,0.000000724
77,8027,189,6.48,7.03846e-06,0.000000724
77.5,8027,190,6.5,7.09535e-06,0.000000724
78,8027,192,6.52,7.15194e-06,0.000000725
78.5,8027,193,6.55,7.2082e-06,0.000000725
79,8027,195,6.57,7.26415e-06,0.000000726
79.5,8027,196,6.59,7.31978e-06,0.000000726
80,8027,198,6.62,7.37508e-06,0.000000726
80.5,8027,199,6.64,7.43006e-06,0.000000727
81,8027,200,6.67,7.48472e-06,0.000000727
81.5,8027,202,6.69,7.53905e-06,0.000000727
82,8027,203,6.72,7.59306e-06,0.000000728
82.5,8027,205,6.74,7.64673e-06,0.000000728
83,8027,206,6.76,7.70008e-06,0.000000729
83.5,8027,207,6.79,7.7531e-06,0.000000729
84,8027,209,6.81,7.80578e-06,0.000000729
84.5,8027,210,6.84,7.85814e-06,0.00000073
85,8027,211,6.86,7.91016e-06,0.00000073
85.5,8027,213,6.88,7.96185e-06,0.000000731
86,8027,214,6.91,8.01321e-06,0.000000731
86.5,8027,215,6.93,8.06424e-06,0.000000731
87,8027,217,6.95,8.11493e-06,0.000000732
87.5,8027,218,6.98,8.16529e-06,0.000000732
88,8027,219,7,8.21531e-06,0.000000732
88.5,8027,220,7.02,8.26501e-06,0.000000733
89,8027,222,7.05,8.31437e-06,0.000000733
89.5,8027,223,7.07,8.36339e-06,0.000000734
90,8027,224,7.09,8.41208e-06,0.000000734
90.5,8027,225,7.11,8.46044e-06,0.000000734
91,8027,227,7.13,8.50847e-06,0.000000735
91.5,8027,228,7.15,8.55617e-06,0.000000735
92,8027,229,7.17,8.60354e-06,0.000000735
92.5,8027,230,7.19,8.65057e-06,0.000000736
93,8027,231,7.21,8.69728e-06,0.000000736
93.5,8027,233,7.23,8.74366e-06,0.000000737
94,8027,234,7.25,8.78971e-06,0.000000737
94.5,8027,235,7.27,8.83543e-06,0.000000737
95,8027,236,7.29,8.88082e-06,0.000000738
95.5,8027,237,7.31,8.9259e-06,0.000000738
96,8027,239,7.33,8.97064e-06,0.000000738
96.5,8027,240,7.35,9.01507e-06,0.000000739
97,8027,241,7.37,9.05917e-06,0.000000739
97.5,8027,242,7.38,9.10295e-06,0.00000074
98,8027,243,7.4,9.14642e-06,0.00000074
98.5,8027,244,7.42,9.18956e-06,0.00000074
99,8027,245,7.44,9.23239e-06,0.000000741
99.5,8027,246,7.46,9.27491e-06,0.000000741
100,8027,248,7.47,9.31711e-06,0.000000742
100.5,8027,249,7.49,9.359e-06,0.000000742
101,8027,250,7.51,9.40058e-06,0.000000742
101.5,8027,251,7.53,9.44186e-06,0.000000743
102,8027,252,7.55,9.48282e-06,0.000000743
102.5,8027,253,7.56,9.52348e-06,0.000000743
103,8027,254,7.58,9.56384e-06,0.000000744
103.5,8027,255,7.6,9.6039e-06,0.000000744
104,8027,256,7.62,9.64366e-06,0.000000745
104.5,8027,257,7.64,9.68312e-06,0.000000745
105,8027,258,7.65,9.72228e-06,0.000000745
105.5,8027,259,7.67,9.76115e-06,0.000000746
106,8027,260,7.69,9.79973e-06,0.000000746
106.5,8027,261,7.71,9.83803e-06,0.000000746
107,8027,263,7.72,9.87603e-06,0.000000747
107.5,8027,264,7.74,9.91375e-06,0.000000747
108,8027,265,7.76,9.95119e-06,0.000000748
108.5,8027,266,7.78,9.98834e-06,0.000000748
109,8027,267,7.79,1.00252e-05,0.000000748
109.5,8027,268,7.81,1.00618e-05,0.000000749
110,8027,269,7.83,1.00981e-05,0.000000749
110.5,8027,270,7.84,1.01342e-05,0.000000749
111,8027,271,7.86,1.017e-05,0.00000075
111.5,8027,272,7.88,1.02055e-05,0.00000075
112,8027,273,7.89,1.02408e-05,0.000000751
112.5,8027,274,7.91,1.02758e-05,0.000000751
113,8027,275,7.93,1.03105e-05,0.000000751
113.5,8027,276,7.94,1.0345e-05,0.000000752
114,8027,276,7.96,1.03792e-05,0.000000752
114.5,8027,277,7.98,1.04131e-05,0.000000752
115,8027,278,7.99,1.04469e-05,0.000000753
115.5,8027,279,8.01,1.04803e-05,0.000000753
116,8027,280,8.03,1.05136e-05,0.000000754
116.5,8027,281,8.04,1.05465e-05,0.000000754
117,8027,282,8.06,1.05793e-05,0.000000754
117.5,8027,283,8.07,1.06118e-05,0.000000755
118,8027,284,8.09,1.0644e-05,0.000000755
118.5,8027,285,8.11,1.06761e-05,0.000000756
119,8027,286,8.12,1.07079e-05,0.000000756
119.5,8027,287,8.14,1.07395e-05,0.000000756
120,8027,288,8.15,1.07708e-05,0.000000757
120.5,8027,289,8.17,1.0802e-05,0.000000757
121,8027,289,8.19,1.08329e-05,0.000000757
121.5,8027,290,8.2,1.08636e-05,0.000000758
122,8027,291,8.22,1.0894e-05,0.000000758
122.5,8027,292,8.23,1.09243e-05,0.000000759
123,8027,293,8.25,1.09544e-05,0.000000759
123.5,8027,294,8.26,1.09842e-05,0.000000759
124,8027,295,8.28,1.10139e-05,0.00000076
124.5,8027,296,8.29,1.10433e-05,0.00000076
125,8027,297,8.31,1.10726e-05,0.00000076
125.5,8027,297,8.32,1.11016e-05,0.000000761
126,8027,298,8.34,1.11305e-05,0.000000761
126.5,8027,299,8.36,1.11591e-05,0.000000762
127,8027,300,8.37,1.11876e-05,0.000000762
127.5,8027,301,8.39,1.12159e-05,0.000000762
128,8027,302,8.4,1.1244e-05,0.000000763
128.5,8027,302,8.41,1.12719e-05,0.000000763
129,8027,303,8.43,1.12997e-05,0.000000763
129.5,8027,304,8.44,1.13272e-05,0.000000764
130,8027,305,8.46,1.13546e-05,0.000000764
130.5,8027,306,8.47,1.13819e-05,0.000000765
131,8027,307,8.49,1.14089e-05,0.000000765
131.5,8027,307,8.5,1.14358e-05,0.000000765
132,8027,308,8.52,1.14625e-05,0.000000766
132.5,8027,309,8.53,1.14891e-05,0.000000766
133,8027,310,8.55,1.15155e-05,0.000000767
133.5,8027,311,8.56,1.15418e-05,0.000000767
134,8027,311,8.58,1.15679e-05,0.000000767
134.5,8027,312,8.59,1.15938e-05,0.000000768
135,8027,313,8.6,1.16196e-05,0.000000768
135.5,8027,314,8.62,1.16452e-05,0.000000768
136,8027,315,8.63,1.16707e-05,0.000000769
136.5,8027,315,8.65,1.16961e-05,0.000000769
137,8027,316,8.66,1.17213e-05,0.00000077
137.5,8027,317,8.68,1.17464e-05,0.00000077
138,8027,318,8.69,1.17714e-05,0.00000077
138.5,8027,318,8.7,1.17962e-05,0.000000771
139,8027,319,8.72,1.18209e-05,0.000000771
139.5,8027,320,8.73,1.18454e-05,0.000000771
140,8027,321,8.74,1.18698e-05,0.000000772
140.5,8027,321,8.76,1.18941e-05,0.000000772
141,8027,322,8.77,1.19183e-05,0.000000773
141.5,8027,323,8.79,1.19424e-05,0.000000773
142,8027,324,8.8,1.19663e-05,0.000000773
142.5,8027,324,8.81,1.19901e-05,0.000000774
143,8027,325,8.83,1.20138e-05,0.000000774
143.5,8027,326,8.84,1.20374e-05,0.000000774
144,8027,327,8.85,1.20609e-05,0.000000775
144.5,8027,327,8.87,1.20843e-05,0.000000775
145,8027,328,8.88,1.21076e-05,0.000000776
145.5,8027,329,8.89,1.21307e-05,0.000000776
146,8027,329,8.91,1.21538e-05,0.000000776
146.5,8027,330,8.92,1.21767e-05,0.000000777
147,8027,331,8.93,1.21996e-05,0.000000777
147.5,8027,332,8.95,1.22224e-05,0.000000778
148,8027,332,8.96,1.2245e-05,0.000000778
148.5,8027,333,8.97,1.22676e-05,0.000000778
149,8027,334,8.99,1.22901e-05,0.000000779
149.5,8027,334,9,1.23125e-05,0.000000779
150,8027,335,9.01,1.23348e-05,0.000000779
150.5,8027,336,9.03,1.2357e-05,0.00000078
151,8027,336,9.04,1.23791e-05,0.00000078
151.5,8027,337,9.05,1.24012e-05,0.000000781
152,8027,338,9.07,1.24231e-05,0.000000781
152.5,8027,339,9.08,1.2445e-05,0.000000781
153,8027,339,9.1,1.24668e-05,0.000000782
153.5,8027,340,9.11,1.24885e-05,0.000000782
154,8027,341,9.12,1.25102e-05,0.000000782
154.5,8027,341,9.14,1.25317e-05,0.000000783
155,8027,342,9.15,1.25532e-05,0.000000783
155.5,8027,343,9.16,1.25746e-05,0.000000784
156,8027,343,9.17,1.2596e-05,0.000000784
156.5,8027,344,9.19,1.26172e-05,0.000000784
157,8027,345,9.2,1.26385e-05,0.000000785
157.5,8027,346,9.21,1.26596e-05,0.000000785
158,8027,346,9.23,1.26806e-05,0.000000785
158.5,8027,347,9.24,1.27016e-05,0.000000786
159,8027,348,9.25,1.27226e-05,0.000000786
159.5,8027,348,9.27,1.27434e-05,0.000000787
160,8027,349,9.28,1.27642e-05,0.000000787
160.5,8027,350,9.29,1.2785e-05,0.000000787
161,8027,350,9.31,1.28057e-05,0.000000788
161.5,8027,351,9.32,1.28263e-05,0.000000788
162,8027,352,9.33,1.28468e-05,0.000000788
162.5,8027,352,9.34,1.28673e-05,0.000000789
163,8027,353,9.36,1.28878e-05,0.000000789
163.5,8027,354,9.37,1.29082e-05,0.00000079
164,8027,354,9.38,1.29285e-05,0.00000079
164.5,8027,355,9.4,1.29487e-05,0.00000079
165,8027,356,9.41,1.29689e-05,0.000000791
165.5,8027,356,9.42,1.29891e-05,0.000000791
166,8027,357,9.43,1.30092e-05,0.000000792
166.5,8027,357,9.45,1.30292e-05,0.000000792
167,8027,358,9.46,1.30492e-05,0.000000792
167.5,8027,359,9.47,1.30692e-05,0.000000793
168,8027,359,9.48,1.3089e-05,0.000000793
168.5,8027,360,9.5,1.31089e-05,0.000000793
169,8027,361,9.51,1.31286e-05,0.000000794
169.5,8027,361,9.52,1.31483e-05,0.000000794
170,8027,362,9.53,1.3168e-05,0.000000795
170.5,8027,362,9.55,1.31876e-05,0.000000795
171,8027,363,9.56,1.32072e-05,0.000000795
171.5,8027,364,9.57,1.32267e-05,0.000000796
172,8027,364,9.58,1.32462e-05,0.000000796
172.5,8027,365,9.6,1.32656e-05,0.000000796
173,8027,366,9.61,1.32849e-05,0.000000797
173.5,8027,366,9.62,1.33042e-05,0.000000797
174,8027,367,9.63,1.33235e-05,0.000000798
174.5,8027,367,9.64,1.33427e-05,0.000000798
175,8027,368,9.66,1.33618e-05,0.000000798
175.5,8027,369,9.67,1.33809e-05,0.000000799
176,8027,369,9.68,1.33999e-05,0.000000799
176.5,8027,370,9.69,1.34189e-05,0.000000799
177,8027,370,9.7,1.34379e-05,0.0000008
177.5,8027,371,9.72,1.34568e-05,0.0000008
178,8027,371,9.73,1.34756e-05,0.000000801
178.5,8027,372,9.74,1.34944e-05,0.000000801
179,8027,373,9.75,1.35131e-05,0.000000801
179.5,8027,373,9.76,1.35317e-05,0.000000802
180,8027,374,9.78,1.35504e-05,0.000000802
180.5,8027,374,9.79,1.35689e-05,0.000000803
181,8027,375,9.8,1.35874e-05,0.000000803
181.5,8027,375,9.81,1.36058e-05,0.000000803
182,8027,376,9.82,1.36242e-05,0.000000804
182.5,8027,377,9.84,1.36426e-05,0.000000804
183,8027,377,9.85,1.36608e-05,0.000000804
183.5,8027,378,9.86,1.3679e-05,0.000000805
184,8027,378,9.87,1.36972e-05,0.000000805
184.5,8027,379,9.88,1.37153e-05,0.000000806
185,8027,379,9.89,1.37333e-05,0.000000806
185.5,8027,380,9.91,1.37513e-05,0.000000806
186,8027,381,9.92,1.37692e-05,0.000000807
186.5,8027,381,9.93,1.3787e-05,0.000000807
187,8027,382,9.94,1.38048e-05,0.000000807
187.5,8027,382,9.95,1.38225e-05,0.000000808
188,8027,383,9.96,1.38401e-05,0.000000808
188.5,8027,383,9.98,1.38577e-05,0.000000809
189,8027,384,9.99,1.38752e-05,0.000000809
189.5,8027,384,10,1.38927e-05,0.000000809
190,8027,385,10,1.391e-05,0.00000081
190.5,8027,385,10,1.39273e-05,0.00000081
191,8027,386,10,1.39446e-05,0.00000081
191.5,8027,386,10,1.39617e-05,0.000000811
192,8027,387,10.1,1.39788e-05,0.000000811
192.5,8027,387,10.1,1.39958e-05,0.000000812
193,8027,388,10.1,1.40127e-05,0.000000812
193.5,8027,388,10.1,1.40296e-05,0.000000812
194,8027,389,10.1,1.40464e-05,0.000000813
194.5,8027,390,10.1,1.40631e-05,0.000000813
195,8027,390,10.1,1.40797e-05,0.000000814
195.5,8027,391,10.1,1.40962e-05,0.000000814
196,8027,391,10.1,1.41126e-05,0.000000814
196.5,8027,392,10.2,1.4129e-05,0.000000815
197,8027,392,10.2,1.41453e-05,0.000000815
197.5,8027,393,10.2,1.41615e-05,0.000000815
198,8027,393,10.2,1.41776e-05,0.000000816
198.5,8027,394,10.2,1.41936e-05,0.000000816
199,8027,394,10.2,1.42095e-05,0.000000817
199.5,8027,395,10.2,1.42253e-05,0.000000817
200,8027,395,10.2,1.4241e-05,0.000000817
200.5,8027,396,10.2,1.42567e-05,0.000000818
201,8027,396,10.3,1.42722e-05,0.000000818
201.5,8027,396,10.3,1.42876e-05,0.000000818
202,8027,397,10.3,1.4303e-05,0.000000819
202.5,8027,397,10.3,1.43182e-05,0.000000819
203,8027,398,10.3,1.43334e-05,0.00000082
203.5,8027,398,10.3,1.43484e-05,0.00000082
204,8027,399,10.3,1.43633e-05,0.00000082
204.5,8027,399,10.3,1.43781e-05,0.000000821
205,8027,400,10.3,1.43929e-05,0.000000821
205.5,8027,400,10.4,1.44075e-05,0.000000821
206,8027,401,10.4,1.4422e-05,0.000000822
206.5,8027,401,10.4,1.44363e-05,0.000000822
207,8027,402,10.4,1.44506e-05,0.000000823
207.5,8027,402,10.4,1.44648e-05,0.000000823
208,8027,403,10.4,1.44788e-05,0.000000823
208.5,8027,403,10.4,1.44927e-05,0.000000824
209,8027,403,10.4,1.45065e-05,0.000000824
209.5,8027,404,10.4,1.45202e-05,0.000000824
210,8027,404,10.5,1.45337e-05,0.000000825
210.5,8027,405,10.5,1.45472e-05,0.000000825
211,8027,405,10.5,1.45605e-05,0.000000826
211.5,8027,406,10.5,1.45737e-05,0.000000826
212,8027,406,10.5,1.45867e-05,0.000000826
212.5,8027,407,10.5,1.45996e-05,0.000000827
213,8027,407,10.5,1.46124e-05,0.000000827
213.5,8027,407,10.5,1.46251e-05,0.000000828
214,8027,408,10.5,1.46376e-05,0.000000828
214.5,8027,408,10.6,1.465e-05,0.000000828
215,8027,409,10.6,1.46623e-05,0.000000829
215.5,8027,409,10.6,1.46744e-05,0.000000829
216,8027,410,10.6,1.46864e-05,0.000000829
216.5,8027,410,10.6,1.46982e-05,0.00000083
217,8027,410,10.6,1.47099e-05,0.00000083
217.5,8027,411,10.6,1.47214e-05,0.000000831
218,8027,411,10.6,1.47329e-05,0.000000831
218.5,8027,412,10.6,1.47441e-05,0.000000831
219,8027,412,10.6,1.47552e-05,0.000000832
219.5,8027,413,10.7,1.47662e-05,0.000000832
220,8027,413,10.7,1.4777e-05,0.000000832
220.5,8027,413,10.7,1.47877e-05,0.000000833
221,8027,414,10.7,1.47982e-05,0.000000833
221.5,8027,414,10.7,1.48086e-05,0.000000834
222,8027,415,10.7,1.48188e-05,0.000000834
222.5,8027,415,10.7,1.48289e-05,0.000000834
223,8027,415,10.7,1.48388e-05,0.000000835
223.5,8027,416,10.7,1.48485e-05,0.000000835
224,8027,416,10.8,1.48581e-05,0.000000835
224.5,8027,417,10.8,1.48676e-05,0.000000836
225,8027,417,10.8,1.48768e-05,0.000000836
225.5,8027,418,10.8,1.4886e-05,0.000000837
226,8027,418,10.8,1.48949e-05,0.000000837
226.5,8027,418,10.8,1.49037e-05,0.000000837
227,8027,419,10.8,1.49124e-05,0.000000838
227.5,8027,419,10.8,1.49208e-05,0.000000838
228,8027,420,10.8,1.49291e-05,0.000000839
228.5,8027,420,10.8,1.49373e-05,0.000000839
229,8027,420,10.9,1.49453e-05,0.000000839
229.5,8027,421,10.9,1.49531e-05,0.00000084
230,8027,421,10.9,1.49608e-05,0.00000084
230.5,8027,421,10.9,1.49682e-05,0.00000084
231,8027,422,10.9,1.49756e-05,0.000000841
231.5,8027,422,10.9,1.49827e-05,0.000000841
232,8027,423,10.9,1.49897e-05,0.000000842
232.5,8027,423,10.9,1.49965e-05,0.000000842
233,8027,423,10.9,1.50032e-05,0.000000842
233.5,8027,424,11,1.50097e-05,0.000000843
234,8027,424,11,1.5016e-05,0.000000843
234.5,8027,425,11,1.50222e-05,0.000000843
235,8027,425,11,1.50282e-05,0.000000844
235.5,8027,425,11,1.5034e-05,0.000000844
236,8027,426,11,1.50396e-05,0.000000845
236.5,8027,426,11,1.50451e-05,0.000000845
237,8027,426,11,1.50505e-05,0.000000845
237.5,8027,427,11,1.50556e-05,0.000000846
238,8027,427,11,1.50606e-05,0.000000846
238.5,8027,428,11.1,1.50655e-05,0.000000846
239,8027,428,11.1,1.50701e-05,0.000000847
239.5,8027,428,11.1,1.50746e-05,0.000000847
240,8027,429,11.1,1.5079e-05,0.000000848
240.5,8027,429,11.1,1.50832e-05,0.000000848
241,8027,429,11.1,1.50872e-05,0.000000848
241.5,8027,430,11.1,1.50911e-05,0.000000849
242,8027,430,11.1,1.50948e-05,0.000000849
242.5,8027,431,11.1,1.50983e-05,0.00000085
243,8027,431,11.1,1.51017e-05,0.00000085
243.5,8027,431,11.2,1.5105e-05,0.00000085
244,8027,432,11.2,1.51081e-05,0.000000851
244.5,8027,432,11.2,1.5111e-05,0.000000851
245,8027,432,11.2,1.51138e-05,0.000000851
245.5,8027,433,11.2,1.51164e-05,0.000000852
246,8027,433,11.2,1.51189e-05,0.000000852
246.5,8027,434,11.2,1.51213e-05,0.000000853
247,8027,434,11.2,1.51235e-05,0.000000853
247.5,8027,434,11.2,1.51256e-05,0.000000853
248,8027,435,11.2,1.51275e-05,0.000000854
248.5,8027,435,11.3,1.51293e-05,0.000000854
249,8027,435,11.3,1.5131e-05,0.000000854
249.5,8027,436,11.3,1.51325e-05,0.000000855
250,8027,436,11.3,1.51339e-05,0.000000855
250.5,8027,436,11.3,1.51352e-05,0.000000856
251,8027,437,11.3,1.51364e-05,0.000000856
251.5,8027,437,11.3,1.51374e-05,0.000000856
252,8027,437,11.3,1.51383e-05,0.000000857
252.5,8027,438,11.3,1.51391e-05,0.000000857
253,8027,438,11.3,1.51398e-05,0.000000857
253.5,8027,438,11.4,1.51404e-05,0.000000858
254,8027,439,11.4,1.51409e-05,0.000000858
254.5,8027,439,11.4,1.51413e-05,0.000000859
255,8027,439,11.4,1.51416e-05,0.000000859
255.5,8027,440,11.4,1.51418e-05,0.000000859
256,8027,440,11.4,1.51419e-05,0.00000086
256.5,8027,441,11.4,1.5142e-05,0.00000086
257,8027,441,11.4,1.51419e-05,0.00000086
257.5,8027,441,11.4,1.51418e-05,0.000000861
258,8027,442,11.4,1.51416e-05,0.000000861
258.5,8027,442,11.4,1.51414e-05,0.000000862
259,8027,442,11.5,1.51411e-05,0.000000862
259.5,8027,443,11.5,1.51407e-05,0.000000862
260,8027,443,11.5,1.51403e-05,0.000000863
260.5,8027,443,11.5,1.51398e-05,0.000000863
261,8027,444,11.5,1.51393e-05,0.000000864
261.5,8027,444,11.5,1.51387e-05,0.000000864
262,8027,444,11.5,1.51382e-05,0.000000864
262.5,8027,445,11.5,1.51376e-05,0.000000865
263,8027,445,11.5,1.5137e-05,0.000000865
263.5,8027,445,11.5,1.51364e-05,0.000000865
264,8027,446,11.6,1.51357e-05,0.000000866
264.5,8027,446,11.6,1.51351e-05,0.000000866
265,8027,446,11.6,1.51345e-05,0.000000867
265.5,8027,447,11.6,1.51339e-05,0.000000867
266,8027,447,11.6,1.51333e-05,0.000000867
266.5,8027,447,11.6,1.51328e-05,0.000000868
267,8027,448,11.6,1.51323e-05,0.000000868
267.5,8027,448,11.6,1.51318e-05,0.000000868
268,8027,448,11.6,1.51314e-05,0.000000869
268.5,8027,449,11.6,1.51311e-05,0.000000869
269,8027,449,11.7,1.51308e-05,0.00000087
269.5,8027,450,11.7,1.51306e-05,0.00000087
270,8027,450,11.7,1.51305e-05,0.00000087
270.5,8027,450,11.7,1.51305e-05,0.000000871
271,8027,451,11.7,1.51305e-05,0.000000871
271.5,8027,451,11.7,1.51305e-05,0.000000871
272,8027,451,11.7,1.51305e-05,0.000000872
272.5,8027,452,11.7,1.51305e-05,0.000000872
273,8027,452,11.7,1.51305e-05,0.000000873
273.5,8027,452,11.7,1.51305e-05,0.000000873
274,8027,453,11.7,1.51305e-05,0.000000873
274.5,8027,453,11.8,1.51305e-05,0.000000874
275,8027,453,11.8,1.51305e-05,0.000000874
275.5,8027,454,11.8,1.51305e-05,0.000000875
276,8027,454,11.8,1.51305e-05,0.000000875
276.5,8027,455,11.8,1.51305e-05,0.000000875
277,8027,455,11.8,1.51305e-05,0.000000876
277.5,8027,455,11.8,1.51305e-05,0.000000876
278,8027,456,11.8,1.51305e-05,0.000000876
278.5,8027,456,11.8,1.51305e-05,0.000000877
279,8027,456,11.8,1.51305e-05,0.000000877
279.5,8027,457,11.8,1.51305e-05,0.000000878
280,8027,457,11.9,1.51305e-05,0.000000878
280.5,8027,457,11.9,1.51305e-05,0.000000878
281,8027,458,11.9,1.51305e-05,0.000000879
281.5,8027,458,11.9,1.51305e-05,0.000000879
282,8027,459,11.9,1.51305e-05,0.000000879
282.5,8027,459,11.9,1.51305e-05,0.00000088
283,8027,459,11.9,1.51305e-05,0.00000088
283.5,8027,460,11.9,1.51305e-05,0.000000881
284,8027,460,11.9,1.51305e-05,0.000000881
284.5,8027,460,11.9,1.51305e-05,0.000000881
285,8027,461,11.9,1.51305e-05,0.000000882
285.5,8027,461,12,1.51305e-05,0.000000882
286,8027,462,12,1.51305e-05,0.000000882
286.5,8027,462,12,1.51305e-05,0.000000883
287,8027,462,12,1.51305e-05,0.000000883
287.5,8027,463,12,1.51305e-05,0.000000884
288,8027,463,12,1.51305e-05,0.000000884
288.5,8027,463,12,1.51305e-05,0.000000884
289,8027,464,12,1.51305e-05,0.000000885
289.5,8027,464,12,1.51305e-05,0.000000885
290,8027,465,12,1.51305e-05,0.000000886
290.5,8027,465,12,1.51305e-05,0.000000886
291,8027,465,12.1,1.51305e-05,0.000000886
291.5,8027,466,12.1,1.51305e-05,0.000000887
292,8027,466,12.1,1.51305e-05,0.000000887
292.5,8027,467,12.1,1.51305e-05,0.000000887
293,8027,467,12.1,1.51305e-05,0.000000888
293.5,8027,467,12.1,1.51305e-05,0.000000888
294,8027,468,12.1,1.51305e-05,0.000000889
294.5,8027,468,12.1,1.51305e-05,0.000000889
295,8027,469,12.1,1.51305e-05,0.000000889
295.5,8027,469,12.1,1.51305e-05,0.00000089
296,8027,469,12.1,1.51305e-05,0.00000089
296.5,8027,470,12.2,1.51305e-05,0.00000089
297,8027,470,12.2,1.51305e-05,0.000000891
297.5,8027,471,12.2,1.51305e-05,0.000000891
298,8027,471,12.2,1.51305e-05,0.000000892
298.5,8027,472,12.2,1.51305e-05,0.000000892
299,8027,472,12.2,1.51305e-05,0.000000892
299.5,8027,472,12.2,1.51305e-05,0.000000893
300,8027,473,12.2,1.51305e-05,0.000000893