File: SolidProps/lib/STAINLESS_STEEL_304L.csv
T/K,rho/(kg/m3),cp/(J/(kg.K)),K/(W/(m.K)),alpha_thermal/(1/K),resistivity/(ohm.m)
1,7900,0.464,0.042,0,0.00000049
1.5,7900,0.697,0.0726,0,0.00000049
2,7900,0.931,0.103,0,0.00000049
2.5,7900,1.17,0.133,0,0.00000049
3,7900,1.4,0.164,0,0.00000049
3.5,7900,1.64,0.195,0,0.00000049
4,7900,1.88,0.227,0,0.00000049
4.5,7900,2.12,0.26,0,0.00000049
5,7900,2.37,0.3,6.42253e-09,0.00000049
5.5,7900,2.61,0.34,1.73885e-08,0.00000049
6,7900,2.86,0.381,2.91127e-08,0.00000049
6.5,7900,3.12,0.425,4.15877e-08,0.00000049
7,7900,3.37,0.47,5.48061e-08,0.00000049
7.5,7900,3.64,0.516,6.87605e-08,0.00000049
8,7900,3.9,0.565,8.34436e-08,0.00000049
8.5,7900,4.17,0.614,9.88479e-08,0.00000049
9,7900,4.45,0.665,1.14966e-07,0.00000049
9.5,7900,4.75,0.719,1.31791e-07,0.00000049
10,7900,5.02,0.77,1.49315e-07,0.00000049
10.5,7900,5.29,0.822,1.67532e-07,0.00000049
11,7900,5.57,0.875,1.86433e-07,0.00000049
11.5,7900,5.86,0.929,2.06013e-07,0.00000049
12,7900,6.15,0.983,2.26262e-07,0.00000049
12.5,7900,6.45,1.04,2.47176e-07,0.00000049
13,7900,6.76,1.09,2.68746e-07,0.00000049
13.5,7900,7.08,1.15,2.90965e-07,0.00000049
14,7900,7.42,1.21,3.13826e-07,0.00000049
14.5,7900,7.76,1.27,3.37322e-07,0.00000049
15,7900,8.12,1.33,3.61447e-07,0.00000049
15.5,7900,8.49,1.39,3.86193e-07,0.00000049
16,7900,8.88,1.45,4.11553e-07,0.000000491
16.5,7900,9.28,1.51,4.37521e-07,0.000000491
17,7900,9.69,1.57,4.64089e-07,0.000000491
17.5,7900,10.1,1.63,4.91251e-07,0.000000491
18,7900,10.6,1.69,5.19e-07,0.000000491
18.5,7900,11.1,1.76,5.47328e-07,0.000000491
19,7900,11.5,1.82,5.7623e-07,0.000000491
19.5,7900,12,1.89,6.05699e-07,0.000000491
20,7900,12.6,1.95,6.35727e-07,0.000000491
20.5,7900,13.2,2.01,6.66308e-07,0.000000491
21,7900,13.8,2.08,6.97436e-07,0.000000491
21.5,7900,14.5,2.14,7.29103e-07,0.000000491
22,7900,15.1,2.21,7.61304e-07,0.000000492
22.5,7900,15.8,2.28,7.9403e-07,0.000000492
23,7900,16.5,2.34,8.27277e-07,0.000000492
23.5,7900,17.3,2.41,8.61038e-07,0.000000492
24,7900,18,2.48,8.95305e-07,0.000000492
24.5,7900,18.8,2.54,9.30072e-07,0.000000493
25,7900,19.6,2.61,9.65334e-07,0.000000493
25.5,7900,20.5,2.68,1.00108e-06,0.000000493
26,7900,21.4,2.75,1.03731e-06,0.000000493
26.5,7900,22.2,2.82,1.07402e-06,0.000000493
27,7900,23.2,2.88,1.11119e-06,0.000000494
27.5,7900,24.1,2.95,1.14883e-06,0.000000494
28,7900,25.1,3.02,1.18692e-06,0.000000494
28.5,7900,26.1,3.09,1.22546e-06,0.000000494
29,7900,27.1,3.16,1.26444e-06,0.000000495
29.5,7900,28.2,3.23,1.30386e-06,0.000000495
30,7900,29.3,3.3,1.34372e-06,0.000000495
30.5,7900,30.4,3.37,1.38399e-06,0.000000495
31,7900,31.6,3.44,1.42469e-06,0.000000495
31.5,7900,32.8,3.52,1.46579e-06,0.000000496
32,7900,34,3.59,1.50731e-06,0.000000496
32.5,7900,35.2,3.66,1.54922e-06,0.000000496
33,7900,36.5,3.73,1.59153e-06,0.000000496
33.5,7900,37.8,3.8,1.63423e-06,0.000000497
34,7900,39.2,3.87,1.67731e-06,0.000000497
34.5,7900,40.6,3.94,1.72076e-06,0.000000497
35,7900,42,4.02,1.76459e-06,0.000000497
35.5,7900,43.4,4.09,1.80878e-06,0.000000498
36,7900,44.9,4.16,1.85333e-06,0.000000498
36.5,7900,46.4,4.23,1.89823e-06,0.000000498
37,7900,47.9,4.3,1.94348e-06,0.000000498
37.5,7900,49.5,4.36,1.98907e-06,0.000000499
38,7900,51.1,4.43,2.03499e-06,0.000000499
38.5,7900,52.7,4.5,2.08125e-06,0.000000499
39,7900,54.4,4.57,2.12783e-06,0.000000499
39.5,7900,55.8,4.64,2.17472e-06,0.0000005
40,7900,57.8,4.7,2.22193e-06,0.0000005
40.5,7900,59.8,4.76,2.26945e-06,0.0000005
41,7900,61.9,4.82,2.31727e-06,0.000000501
41.5,7900,63.9,4.88,2.36539e-06,0.000000501
42,7900,66,4.94,2.41379e-06,0.000000501
42.5,7900,68.2,5,2.46248e-06,0.000000501
43,7900,70.3,5.05,2.51145e-06,0.000000502
43.5,7900,72.4,5.11,2.56069e-06,0.000000502
44,7900,74.6,5.16,2.6102e-06,0.000000502
44.5,7900,76.8,5.22,2.65998e-06,0.000000502
45,7900,78.9,5.28,2.71001e-06,0.000000503
45.5,7900,81.1,5.33,2.76029e-06,0.000000503
46,7900,83.3,5.38,2.81083e-06,0.000000503
46.5,7900,85.4,5.44,2.8616e-06,0.000000503
47,7900,87.6,5.49,2.91261e-06,0.000000504
47.5,7900,89.7,5.54,2.96385e-06,0.000000504
48,7900,91.8,5.59,3.01532e-06,0.000000504
48.5,7900,93.9,5.65,3.067e-06,0.000000504
49,7900,96,5.7,3.11891e-06,0.000000505
49.5,7900,98.4,5.75,3.17102e-06,0.000000505
50,7900,100,5.8,3.22334e-06,0.000000505
50.5,7900,102,5.85,3.27586e-06,0.000000505
51,7900,103,5.91,3.32857e-06,0.000000505
51.5,7900,104,5.96,3.38147e-06,0.000000506
52,7900,106,6.01,3.43456e-06,0.000000506
52.5,7900,107,6.06,3.48783e-06,0.000000506
53,7900,109,6.12,3.54128e-06,0.000000506
53.5,7900,110,6.17,3.59489e-06,0.000000506
54,7900,111,6.22,3.64867e-06,0.000000507
54.5,7900,113,6.27,3.70261e-06,0.000000507
55,7900,114,6.32,3.75671e-06,0.000000507
55.5,7900,116,6.37,3.81095e-06,0.000000507
56,7900,117,6.42,3.86535e-06,0.000000508
56.5,7900,118,6.47,3.91988e-06,0.000000508
57,7900,120,6.52,3.97455e-06,0.000000508
57.5,7900,121,6.56,4.02935e-06,0.000000508
58,7900,122,6.61,4.08428e-06,0.000000509
58.5,7900,124,6.66,4.13933e-06,0.000000509
59,7900,125,6.71,4.1945e-06,0.000000509
59.5,7900,126,6.76,4.24979e-06,0.00000051
60,7900,128,6.8,4.30518e-06,0.00000051
60.5,7900,130,6.84,4.36067e-06,0.00000051
61,7900,132,6.89,4.41627e-06,0.000000511
61.5,7900,134,6.93,4.47196e-06,0.000000511
62,7900,136,6.97,4.52774e-06,0.000000512
62.5,7900,138,7.02,4.58361e-06,0.000000512
63,7900,139,7.06,4.63956e-06,0.000000513
63.5,7900,141,7.1,4.69558e-06,0.000000513
64,7900,143,7.14,4.75168e-06,0.000000514
64.5,7900,145,7.18,4.80785e-06,0.000000514
65,7900,147,7.22,4.86408e-06,0.000000515
65.5,7900,149,7.26,4.92037e-06,0.000000515
66,7900,151,7.3,4.97672e-06,0.000000516
66.5,7900,153,7.34,5.03312e-06,0.000000516
67,7900,155,7.38,5.08957e-06,0.000000517
67.5,7900,157,7.42,5.14606e-06,0.000000517
68,7900,159,7.45,5.20259e-06,0.000000518
68.5,7900,161,7.49,5.25915e-06,0.000000518
69,7900,163,7.53,5.31574e-06,0.000000519
69.5,7900,165,7.56,5.37237e-06,0.000000519
70,7900,167,7.6,5.42901e-06,0.00000052
70.5,7900,169,7.64,5.48567e-06,0.000000521
71,7900,170,7.67,5.54235e-06,0.000000521
71.5,7900,172,7.71,5.59904e-06,0.000000522
72,7900,173,7.74,5.65573e-06,0.000000522
72.5,7900,175,7.78,5.71243e-06,0.000000523
73,7900,176,7.81,5.82435e-06,0.000000523
73.5,7900,178,7.84,5.88963e-06,0.000000524
74,7900,179,7.88,5.95483e-06,0.000000524
74.5,7900,181,7.91,6.01995e-06,0.000000525
75,7900,182,7.94,6.08498e-06,0.000000525
75.5,7900,184,7.98,6.14991e-06,0.000000526
76,7900,185,8.01,6.21473e-06,0.000000526
76.5,7900,187,8.04,6.27945e-06,0.000000527
77,7900,188,8.07,6.34405e-06,0.000000527
77.5,7900,190,8.1,6.40853e-06,0.000000528
78,7900,191,8.14,6.47287e-06,0.000000528
78.5,7900,193,8.17,6.53709e-06,0.000000529
79,7900,194,8.2,6.60116e-06,0.000000529
79.5,7900,195,8.23,6.66508e-06,0.00000053
80,7900,197,8.26,6.72885e-06,0.00000053
80.5,7900,199,8.29,6.79247e-06,0.00000053
81,7900,200,8.32,6.85592e-06,0.000000531
81.5,7900,202,8.35,6.9192e-06,0.000000531
82,7900,204,8.38,6.9823e-06,0.000000532
82.5,7900,206,8.42,7.04523e-06,0.000000532
83,7900,207,8.45,7.10797e-06,0.000000533
83.5,7900,209,8.48,7.17052e-06,0.000000533
84,7900,211,8.51,7.23288e-06,0.000000533
84.5,7900,212,8.54,7.29503e-06,0.000000534
85,7900,214,8.57,7.35698e-06,0.000000534
85.5,7900,216,8.6,7.41872e-06,0.000000535
86,7900,217,8.63,7.48025e-06,0.000000535
86.5,7900,219,8.66,7.54156e-06,0.000000535
87,7900,221,8.69,7.60264e-06,0.000000536
87.5,7900,222,8.72,7.66349e-06,0.000000536
88,7900,224,8.74,7.72411e-06,0.000000537
88.5,7900,225,8.77,7.7845e-06,0.000000537
89,7900,227,8.8,7.84464e-06,0.000000537
89.5,7900,229,8.83,7.90454e-06,0.000000538
90,7900,230,8.86,7.96419e-06,0.000000538
90.5,7900,231,8.89,8.02358e-06,0.000000538
91,7900,232,8.92,8.08272e-06,0.000000539
91.5,7900,234,8.94,8.1416e-06,0.000000539
92,7900,235,8.97,8.20021e-06,0.000000539
92.5,7900,236,9,8.25855e-06,0.00000054
93,7900,237,9.03,8.31662e-06,0.00000054
93.5,7900,238,9.06,8.37442e-06,0.000000541
94,7900,239,9.08,8.43193e-06,0.000000541
94.5,7900,240,9.11,8.48916e-06,0.000000541
95,7900,241,9.14,8.54611e-06,0.000000542
95.5,7900,242,9.16,8.60277e-06,0.000000542
96,7900,243,9.19,8.65914e-06,0.000000542
96.5,7900,244,9.22,8.71521e-06,0.000000543
97,7900,245,9.24,8.77098e-06,0.000000543
97.5,7900,246,9.27,8.82646e-06,0.000000543
98,7900,247,9.3,8.88162e-06,0.000000544
98.5,7900,248,9.32,8.93649e-06,0.000000544
99,7900,248,9.35,8.99104e-06,0.000000544
99.5,7900,249,9.37,9.04528e-06,0.000000545
100,7900,250,9.4,9.09921e-06,0.000000545
100.5,7900,251,9.43,9.15282e-06,0.000000545
101,7900,252,9.45,9.20611e-06,0.000000546
101.5,7900,253,9.48,9.25908e-06,0.000000546
102,7900,254,9.5,9.31172e-06,0.000000547
102.5,7900,255,9.53,9.36404e-06,0.000000547
103,7900,256,9.55,9.41603e-06,0.000000548
103.5,7900,257,9.58,9.46769e-06,0.000000548
104,7900,258,9.6,9.51902e-06,0.000000548
104.5,7900,259,9.63,9.57001e-06,0.000000549
105,7900,260,9.65,9.62067e-06,0.000000549
105.5,7900,261,9.68,9.67099e-06,0.00000055
106,7900,262,9.7,9.72097e-06,0.00000055
106.5,7900,263,9.73,9.77061e-06,0.000000551
107,7900,264,9.75,9.8199e-06,0.000000551
107.5,7900,265,9.78,9.86886e-06,0.000000552
108,7900,266,9.8,9.91746e-06,0.000000552
108.5,7900,267,9.82,9.96572e-06,0.000000553
109,7900,268,9.85,1.00136e-05,0.000000553
109.5,7900,269,9.87,1.00612e-05,0.000000554
110,7900,270,9.9,1.01084e-05,0.000000554
110.5,7900,271,9.92,1.01553e-05,0.000000555
111,7900,272,9.94,1.02018e-05,0.000000555
111.5,7900,273,9.97,1.02479e-05,0.000000556
112,7900,274,9.99,1.02937e-05,0.000000556
112.5,7900,275,10,1.03391e-05,0.000000557
113,7900,276,10,1.03842e-05,0.000000557
113.5,7900,277,10.1,1.0429e-05,0.000000558
114,7900,278,10.1,1.04733e-05,0.000000558
114.5,7900,279,10.1,1.05173e-05,0.000000559
115,7900,280,10.1,1.0561e-05,0.000000559
115.5,7900,281,10.2,1.06043e-05,0.00000056
116,7900,282,10.2,1.06472e-05,0.00000056
116.5,7900,283,10.2,1.06898e-05,0.000000561
117,7900,284,10.2,1.0732e-05,0.000000561
117.5,7900,285,10.2,1.07738e-05,0.000000562
118,7900,286,10.3,1.08153e-05,0.000000562
118.5,7900,287,10.3,1.08564e-05,0.000000563
119,7900,288,10.3,1.08972e-05,0.000000563
119.5,7900,289,10.3,1.09375e-05,0.000000564
120,7900,290,10.4,1.09776e-05,0.000000565
120.5,7900,291,10.4,1.10172e-05,0.000000565
121,7900,292,10.4,1.10566e-05,0.000000566
121.5,7900,293,10.4,1.10955e-05,0.000000566
122,7900,294,10.4,1.11341e-05,0.000000567
122.5,7900,295,10.5,1.11723e-05,0.000000567
123,7900,296,10.5,1.12102e-05,0.000000568
123.5,7900,297,10.5,1.12477e-05,0.000000569
124,7900,298,10.5,1.12848e-05,0.000000569
124.5,7900,299,10.5,1.13216e-05,0.00000057
125,7900,300,10.6,1.1358e-05,0.00000057
125.5,7900,301,10.6,1.1394e-05,0.000000571
126,7900,302,10.6,1.14297e-05,0.000000571
126.5,7900,303,10.6,1.14651e-05,0.000000572
127,7900,304,10.7,1.15001e-05,0.000000573
127.5,7900,305,10.7,1.15347e-05,0.000000573
128,7900,306,10.7,1.15689e-05,0.000000574
128.5,7900,307,10.7,1.16029e-05,0.000000574
129,7900,308,10.7,1.16364e-05,0.000000575
129.5,7900,309,10.8,1.16696e-05,0.000000576
130,7900,310,10.8,1.17025e-05,0.000000576
130.5,7900,311,10.8,1.1735e-05,0.000000577
131,7900,312,10.8,1.17671e-05,0.000000577
131.5,7900,313,10.8,1.17989e-05,0.000000578
132,7900,314,10.9,1.18304e-05,0.000000578
132.5,7900,314,10.9,1.18615e-05,0.000000579
133,7900,315,10.9,1.18923e-05,0.00000058
133.5,7900,316,10.9,1.19227e-05,0.00000058
134,7900,317,10.9,1.19527e-05,0.000000581
134.5,7900,318,11,1.19825e-05,0.000000581
135,7900,319,11,1.20119e-05,0.000000582
135.5,7900,320,11,1.20409e-05,0.000000583
136,7900,321,11,1.20696e-05,0.000000583
136.5,7900,322,11,1.2098e-05,0.000000584
137,7900,323,11,1.21261e-05,0.000000584
137.5,7900,324,11.1,1.21538e-05,0.000000585
138,7900,325,11.1,1.21811e-05,0.000000586
138.5,7900,326,11.1,1.22082e-05,0.000000586
139,7900,327,11.1,1.22349e-05,0.000000587
139.5,7900,328,11.1,1.22613e-05,0.000000587
140,7900,329,11.2,1.22874e-05,0.000000588
140.5,7900,330,11.2,1.23131e-05,0.000000589
141,7900,331,11.2,1.23386e-05,0.000000589
141.5,7900,332,11.2,1.23637e-05,0.00000059
142,7900,332,11.2,1.23885e-05,0.00000059
142.5,7900,333,11.3,1.24129e-05,0.000000591
143,7900,334,11.3,1.24371e-05,0.000000592
143.5,7900,335,11.3,1.24609e-05,0.000000592
144,7900,336,11.3,1.24845e-05,0.000000593
144.5,7900,337,11.3,1.25077e-05,0.000000593
145,7900,338,11.3,1.25307e-05,0.000000594
145.5,7900,339,11.4,1.25533e-05,0.000000595
146,7900,340,11.4,1.25756e-05,0.000000595
146.5,7900,341,11.4,1.25976e-05,0.000000596
147,7900,342,11.4,1.26194e-05,0.000000596
147.5,7900,343,11.4,1.26408e-05,0.000000597
148,7900,343,11.5,1.2662e-05,0.000000598
148.5,7900,344,11.5,1.26828e-05,0.000000598
149,7900,345,11.5,1.27034e-05,0.000000599
149.5,7900,346,11.5,1.27237e-05,0.0000006
150,7900,347,11.5,1.27437e-05,0.0000006
150.5,7900,348,11.5,1.27634e-05,0.0000006
151,7900,349,11.6,1.27829e-05,0.000000601
151.5,7900,350,11.6,1.28021e-05,0.000000601
152,7900,351,11.6,1.2821e-05,0.000000602
152.5,7900,351,11.6,1.28396e-05,0.000000602
153,7900,352,11.6,1.2858e-05,0.000000603
153.5,7900,353,11.6,1.28761e-05,0.000000603
154,7900,354,11.7,1.28939e-05,0.000000604
154.5,7900,355,11.7,1.29115e-05,0.000000604
155,7900,356,11.7,1.29288e-05,0.000000604
155.5,7900,357,11.7,1.29459e-05,0.000000605
156,7900,357,11.7,1.29627e-05,0.000000605
156.5,7900,358,11.7,1.29793e-05,0.000000606
157,7900,359,11.8,1.29956e-05,0.000000606
157.5,7900,360,11.8,1.30117e-05,0.000000607
158,7900,361,11.8,1.30276e-05,0.000000607
158.5,7900,362,11.8,1.30432e-05,0.000000607
159,7900,363,11.8,1.30586e-05,0.000000608
159.5,7900,363,11.8,1.30737e-05,0.000000608
160,7900,364,11.9,1.30886e-05,0.000000609
160.5,7900,365,11.9,1.31033e-05,0.000000609
161,7900,366,11.9,1.31178e-05,0.00000061
161.5,7900,367,11.9,1.31321e-05,0.00000061
162,7900,368,11.9,1.31461e-05,0.00000061
162.5,7900,368,11.9,1.31599e-05,0.000000611
163,7900,369,12,1.31735e-05,0.000000611
163.5,7900,370,12,1.31869e-05,0.000000612
164,7900,371,12,1.32001e-05,0.000000612
164.5,7900,372,12,1.32131e-05,0.000000612
165,7900,372,12,1.32259e-05,0.000000613
165.5,7900,373,12,1.32385e-05,0.000000613
166,7900,374,12.1,1.3251e-05,0.000000614
166.5,7900,375,12.1,1.32632e-05,0.000000614
167,7900,376,12.1,1.32752e-05,0.000000615
167.5,7900,376,12.1,1.32871e-05,0.000000615
168,7900,377,12.1,1.32988e-05,0.000000615
168.5,7900,378,12.1,1.33103e-05,0.000000616
169,7900,379,12.1,1.33216e-05,0.000000616
169.5,7900,380,12.2,1.33327e-05,0.000000617
170,7900,380,12.2,1.33437e-05,0.000000617
170.5,7900,381,12.2,1.33546e-05,0.000000617
171,7900,382,12.2,1.33652e-05,0.000000618
171.5,7900,383,12.2,1.33757e-05,0.000000618
172,7900,383,12.2,1.33861e-05,0.000000619
172.5,7900,384,12.3,1.33963e-05,0.000000619
173,7900,385,12.3,1.34064e-05,0.000000619
173.5,7900,386,12.3,1.34163e-05,0.00000062
174,7900,386,12.3,1.34261e-05,0.00000062
174.5,7900,387,12.3,1.34357e-05,0.000000621
175,7900,388,12.3,1.34452e-05,0.000000621
175.5,7900,389,12.3,1.34546e-05,0.000000621
176,7900,389,12.4,1.34638e-05,0.000000622
176.5,7900,390,12.4,1.34729e-05,0.000000622
177,7900,391,12.4,1.34819e-05,0.000000623
177.5,7900,391,12.4,1.34908e-05,0.000000623
178,7900,392,12.4,1.34996e-05,0.000000623
178.5,7900,393,12.4,1.35082e-05,0.000000624
179,7900,394,12.4,1.35168e-05,0.000000624
179.5,7900,394,12.5,1.35252e-05,0.000000624
180,7900,395,12.5,1.35335e-05,0.000000625
180.5,7900,396,12.5,1.35418e-05,0.000000625
181,7900,396,12.5,1.35499e-05,0.000000626
181.5,7900,397,12.5,1.3558e-05,0.000000626
182,7900,398,12.5,1.3566e-05,0.000000626
182.5,7900,398,12.5,1.35738e-05,0.000000627
183,7900,399,12.6,1.35816e-05,0.000000627
183.5,7900,400,12.6,1.35894e-05,0.000000628
184,7900,400,12.6,1.3597e-05,0.000000628
184.5,7900,401,12.6,1.36046e-05,0.000000628
185,7900,402,12.6,1.36121e-05,0.000000629
185.5,7900,402,12.6,1.36195e-05,0.000000629
186,7900,403,12.6,1.36269e-05,0.000000629
186.5,7900,404,12.7,1.36343e-05,0.00000063
187,7900,404,12.7,1.36415e-05,0.00000063
187.5,7900,405,12.7,1.36487e-05,0.000000631
188,7900,405,12.7,1.36559e-05,0.000000631
188.5,7900,406,12.7,1.3663e-05,0.000000631
189,7900,407,12.7,1.36701e-05,0.000000632
189.5,7900,407,12.7,1.36772e-05,0.000000632
190,7900,408,12.7,1.36842e-05,0.000000632
190.5,7900,408,12.8,1.36912e-05,0.000000633
191,7900,409,12.8,1.36981e-05,0.000000633
191.5,7900,410,12.8,1.3705e-05,0.000000634
192,7900,410,12.8,1.37119e-05,0.000000634
192.5,7900,411,12.8,1.37188e-05,0.000000634
193,7900,411,12.8,1.37257e-05,0.000000635
193.5,7900,412,12.8,1.37325e-05,0.000000635
194,7900,413,12.8,1.37394e-05,0.000000635
194.5,7900,413,12.9,1.37462e-05,0.000000636
195,7900,414,12.9,1.37531e-05,0.000000636
195.5,7900,414,12.9,1.37599e-05,0.000000637
196,7900,415,12.9,1.37667e-05,0.000000637
196.5,7900,415,12.9,1.37736e-05,0.000000637
197,7900,416,12.9,1.37804e-05,0.000000638
197.5,7900,416,12.9,1.37873e-05,0.000000638
198,7900,417,13,1.37942e-05,0.000000638
198.5,7900,417,13,1.38011e-05,0.000000639
199,7900,418,13,1.3808e-05,0.000000639
199.5,7900,419,13,1.3815e-05,0.00000064
200,7900,419,13,1.3822e-05,0.00000064
200.5,7900,419,13,1.3829e-05,0.00000064
201,7900,420,13,1.3836e-05,0.000000641
201.5,7900,420,13,1.38431e-05,0.000000641
202,7900,420,13,1.38502e-05,0.000000642
202.5,7900,421,13.1,1.38574e-05,0.000000642
203,7900,421,13.1,1.38646e-05,0.000000642
203.5,7900,422,13.1,1.38719e-05,0.000000643
204,7900,422,13.1,1.38792e-05,0.000000643
204.5,7900,422,13.1,1.38865e-05,0.000000644
205,7900,423,13.1,1.3894e-05,0.000000644
205.5,7900,423,13.1,1.39015e-05,0.000000644
206,7900,423,13.1,1.3909e-05,0.000000645
206.5,7900,424,13.2,1.39166e-05,0.000000645
207,7900,424,13.2,1.39243e-05,0.000000645
207.5,7900,424,13.2,1.39321e-05,0.000000646
208,7900,424,13.2,1.39399e-05,0.000000646
208.5,7900,425,13.2,1.39478e-05,0.000000647
209,7900,425,13.2,1.39558e-05,0.000000647
209.5,7900,425,13.2,1.39639e-05,0.000000647
210,7900,426,13.2,1.3972e-05,0.000000648
210.5,7900,426,13.2,1.39803e-05,0.000000648
211,7900,426,13.3,1.39886e-05,0.000000649
211.5,7900,426,13.3,1.3997e-05,0.000000649
212,7900,427,13.3,1.40056e-05,0.000000649
212.5,7900,427,13.3,1.40142e-05,0.00000065
213,7900,427,13.3,1.40229e-05,0.00000065
213.5,7900,428,13.3,1.40317e-05,0.000000651
214,7900,428,13.3,1.40407e-05,0.000000651
214.5,7900,428,13.3,1.40497e-05,0.000000651
215,7900,428,13.4,1.40589e-05,0.000000652
215.5,7900,429,13.4,1.40681e-05,0.000000652
216,7900,429,13.4,1.40775e-05,0.000000653
216.5,7900,429,13.4,1.4087e-05,0.000000653
217,7900,429,13.4,1.40966e-05,0.000000653
217.5,7900,429,13.4,1.41064e-05,0.000000654
218,7900,430,13.4,1.41162e-05,0.000000654
218.5,7900,430,13.4,1.41262e-05,0.000000654
219,7900,430,13.4,1.41363e-05,0.000000655
219.5,7900,430,13.5,1.41466e-05,0.000000655
220,7900,431,13.5,1.41569e-05,0.000000656
220.5,7900,431,13.5,1.41675e-05,0.000000656
221,7900,431,13.5,1.41781e-05,0.000000656
221.5,7900,431,13.5,1.41889e-05,0.000000657
222,7900,431,13.5,1.41998e-05,0.000000657
222.5,7900,432,13.5,1.42109e-05,0.000000658
223,7900,432,13.5,1.42221e-05,0.000000658
223.5,7900,432,13.5,1.42335e-05,0.000000658
224,7900,432,13.5,1.4245e-05,0.000000659
224.5,7900,432,13.6,1.42566e-05,0.000000659
225,7900,432,13.6,1.42685e-05,0.00000066
225.5,7900,433,13.6,1.42804e-05,0.00000066
226,7900,433,13.6,1.42925e-05,0.00000066
226.5,7900,433,13.6,1.43048e-05,0.000000661
227,7900,433,13.6,1.43173e-05,0.000000661
227.5,7900,433,13.6,1.43299e-05,0.000000662
228,7900,434,13.6,1.43426e-05,0.000000662
228.5,7900,434,13.6,1.43555e-05,0.000000662
229,7900,434,13.7,1.43686e-05,0.000000663
229.5,7900,434,13.7,1.43819e-05,0.000000663
230,7900,434,13.7,1.43953e-05,0.000000664
230.5,7900,434,13.7,1.44089e-05,0.000000664
231,7900,434,13.7,1.44226e-05,0.000000664
231.5,7900,435,13.7,1.44365e-05,0.000000665
232,7900,435,13.7,1.44506e-05,0.000000665
232.5,7900,435,13.7,1.44649e-05,0.000000666
233,7900,435,13.7,1.44793e-05,0.000000666
233.5,7900,435,13.7,1.44939e-05,0.000000666
234,7900,435,13.8,1.45087e-05,0.000000667
234.5,7900,435,13.8,1.45237e-05,0.000000667
235,7900,436,13.8,1.45389e-05,0.000000668
235.5,7900,436,13.8,1.45542e-05,0.000000668
236,7900,436,13.8,1.45697e-05,0.000000668
236.5,7900,436,13.8,1.45854e-05,0.000000669
237,7900,436,13.8,1.46012e-05,0.000000669
237.5,7900,436,13.8,1.46173e-05,0.00000067
238,7900,436,13.8,1.46335e-05,0.00000067
238.5,7900,436,13.8,1.46499e-05,0.00000067
239,7900,437,13.9,1.46665e-05,0.000000671
239.5,7900,437,13.9,1.46833e-05,0.000000671
240,7900,437,13.9,1.47002e-05,0.000000672
240.5,7900,437,13.9,1.47174e-05,0.000000672
241,7900,437,13.9,1.47347e-05,0.000000673
241.5,7900,437,13.9,1.47522e-05,0.000000673
242,7900,437,13.9,1.47699e-05,0.000000673
242.5,7900,437,13.9,1.47878e-05,0.000000674
243,7900,438,13.9,1.48059e-05,0.000000674
243.5,7900,438,13.9,1.48242e-05,0.000000675
244,7900,438,14,1.48426e-05,0.000000675
244.5,7900,438,14,1.48612e-05,0.000000675
245,7900,438,14,1.488e-05,0.000000676
245.5,7900,438,14,1.4899e-05,0.000000676
246,7900,438,14,1.49182e-05,0.000000677
246.5,7900,438,14,1.49376e-05,0.000000677
247,7900,438,14,1.49572e-05,0.000000677
247.5,7900,438,14,1.49769e-05,0.000000678
248,7900,439,14,1.49968e-05,0.000000678
248.5,7900,439,14,1.50169e-05,0.000000679
249,7900,439,14.1,1.50372e-05,0.000000679
249.5,7900,439,14.1,1.50577e-05,0.00000068
250,7900,439,14.1,1.50783e-05,0.00000068
250.5,7900,439,14.1,1.50992e-05,0.00000068
251,7900,439,14.1,1.51202e-05,0.000000681
251.5,7900,439,14.1,1.51414e-05,0.000000681
252,7900,439,14.1,1.51627e-05,0.000000682
252.5,7900,439,14.1,1.51843e-05,0.000000682
253,7900,439,14.1,1.5206e-05,0.000000683
253.5,7900,439,14.1,1.52279e-05,0.000000683
254,7900,439,14.1,1.525e-05,0.000000684
254.5,7900,439,14.2,1.52722e-05,0.000000684
255,7900,439,14.2,1.52946e-05,0.000000684
255.5,7900,439,14.2,1.53172e-05,0.000000685
256,7900,439,14.2,1.534e-05,0.000000685
256.5,7900,439,14.2,1.53629e-05,0.000000686
257,7900,439,14.2,1.5386e-05,0.000000686
257.5,7900,439,14.2,1.54092e-05,0.000000687
258,7900,439,14.2,1.54326e-05,0.000000687
258.5,7900,440,14.2,1.54562e-05,0.000000688
259,7900,440,14.2,1.54799e-05,0.000000688
259.5,7900,440,14.3,1.55038e-05,0.000000688
260,7900,440,14.3,1.55279e-05,0.000000689
260.5,7900,440,14.3,1.55521e-05,0.000000689
261,7900,440,14.3,1.55764e-05,0.00000069
261.5,7900,440,14.3,1.56009e-05,0.00000069
262,7900,440,14.3,1.56255e-05,0.000000691
262.5,7900,440,14.3,1.56503e-05,0.000000691
263,7900,440,14.3,1.56752e-05,0.000000691
263.5,7900,440,14.3,1.57003e-05,0.000000692
264,7900,441,14.3,1.57255e-05,0.000000692
264.5,7900,441,14.3,1.57509e-05,0.000000693
265,7900,441,14.4,1.57763e-05,0.000000693
265.5,7900,441,14.4,1.58019e-05,0.000000694
266,7900,441,14.4,1.58276e-05,0.000000694
266.5,7900,441,14.4,1.58535e-05,0.000000694
267,7900,441,14.4,1.58795e-05,0.000000695
267.5,7900,442,14.4,1.59056e-05,0.000000695
268,7900,442,14.4,1.59318e-05,0.000000696
268.5,7900,442,14.4,1.59581e-05,0.000000696
269,7900,442,14.4,1.59845e-05,0.000000697
269.5,7900,442,14.4,1.6011e-05,0.000000697
270,7900,443,14.4,1.60376e-05,0.000000697
270.5,7900,443,14.5,1.60644e-05,0.000000698
271,7900,443,14.5,1.60912e-05,0.000000698
271.5,7900,443,14.5,1.61181e-05,0.000000699
272,7900,443,14.5,1.61451e-05,0.000000699
272.5,7900,444,14.5,1.61722e-05,0.0000007
273,7900,444,14.5,1.61993e-05,0.0000007
273.5,7900,444,14.5,1.62265e-05,0.0000007
274,7900,445,14.5,1.62539e-05,0.000000701
274.5,7900,445,14.5,1.62812e-05,0.000000701
275,7900,445,14.5,1.63087e-05,0.000000702
275.5,7900,445,14.5,1.63362e-05,0.000000702
276,7900,446,14.6,1.63637e-05,0.000000702
276.5,7900,446,14.6,1.63913e-05,0.000000703
277,7900,446,14.6,1.64189e-05,0.000000703
277.5,7900,447,14.6,1.64466e-05,0.000000704
278,7900,447,14.6,1.64744e-05,0.000000704
278.5,7900,448,14.6,1.65021e-05,0.000000704
279,7900,448,14.6,1.65299e-05,0.000000705
279.5,7900,448,14.6,1.65577e-05,0.000000705
280,7900,449,14.6,1.65855e-05,0.000000706
280.5,7900,449,14.6,1.66134e-05,0.000000706
281,7900,450,14.6,1.66412e-05,0.000000706
281.5,7900,450,14.6,1.6669e-05,0.000000707
282,7900,451,14.6,1.66969e-05,0.000000707
282.5,7900,451,14.7,1.67247e-05,0.000000708
283,7900,452,14.7,1.67525e-05,0.000000708
283.5,7900,452,14.7,1.67803e-05,0.000000708
284,7900,453,14.7,1.68081e-05,0.000000709
284.5,7900,453,14.7,1.68358e-05,0.000000709
285,7900,454,14.7,1.68635e-05,0.00000071
285.5,7900,454,14.7,1.68912e-05,0.00000071
286,7900,455,14.7,1.69188e-05,0.00000071
286.5,7900,455,14.7,1.69463e-05,0.000000711
287,7900,456,14.7,1.69738e-05,0.000000711
287.5,7900,457,14.7,1.70012e-05,0.000000711
288,7900,457,14.7,1.70286e-05,0.000000712
288.5,7900,458,14.7,1.70559e-05,0.000000712
289,7900,458,14.8,1.7083e-05,0.000000713
289.5,7900,459,14.8,1.71101e-05,0.000000713
290,7900,460,14.8,1.71371e-05,0.000000713
290.5,7900,461,14.8,1.7164e-05,0.000000714
291,7900,461,14.8,1.71907e-05,0.000000714
291.5,7900,462,14.8,1.72174e-05,0.000000714
292,7900,463,14.8,1.72439e-05,0.000000715
292.5,7900,463,14.8,1.72703e-05,0.000000715
293,7900,464,14.8,1.72965e-05,0.000000715
293.5,7900,465,14.8,1.73226e-05,0.000000716
294,7900,466,14.8,1.73485e-05,0.000000716
294.5,7900,467,14.8,1.73742e-05,0.000000716
295,7900,468,14.8,1.73998e-05,0.000000717
295.5,7900,468,14.8,1.74252e-05,0.000000717
296,7900,469,14.8,1.74504e-05,0.000000717
296.5,7900,470,14.9,1.74754e-05,0.000000718
297,7900,471,14.9,1.75002e-05,0.000000718
297.5,7900,472,14.9,1.75248e-05,0.000000718
298,7900,473,14.9,1.75492e-05,0.000000719
298.5,7900,474,14.9,1.75733e-05,0.000000719
299,7900,475,14.9,1.75972e-05,0.000000719
299.5,7900,476,14.9,1.76208e-05,0.00000072
300,7900,477,14.9,1.76442e-05,0.00000072