File: SolidProps/lib/TITANIUM_PURE.csv
T/K,rho/(kg/m3),cp/(J/(kg.K)),K/(W/(m.K)),alpha_thermal/(1/K),resistivity/(ohm.m)
1,4540,0.07,0.4,0,0
1.5,4540,0.0928,1.53,0,0
2,4540,0.122,2.5,0,0
2.5,4540,0.157,3.33,0,0.00000000459
3,4540,0.199,4.03,0,0.00000000918
3.5,4540,0.245,4.63,0,0.0000000138
4,4540,0.298,5.16,0,0.0000000184
4.5,4540,0.355,5.62,0,0.0000000202
5,4540,0.401,6.37,0,0.0000000241
5.5,4540,0.457,7.01,0,0.0000000257
6,4540,0.517,7.64,0,0.0000000268
6.5,4540,0.583,8.27,0,0.0000000273
7,4540,0.654,8.91,0,0.0000000275
7.5,4540,0.733,9.54,0,0.0000000271
8,4540,0.818,10.2,0,0.0000000265
8.5,4540,0.912,10.8,0,0.0000000255
9,4540,1.01,11.4,1.7896e-08,0.0000000242
9.5,4540,1.14,12,4.60307e-08,0.000000021
10,4540,1.25,12.7,7.41004e-08,0.000000021
10.5,4540,1.38,13.4,1.02105e-07,0.000000021
11,4540,1.51,14.1,1.30046e-07,0.0000000211
11.5,4540,1.66,14.8,1.57922e-07,0.0000000211
12,4540,1.82,15.5,1.85733e-07,0.0000000212
12.5,4540,2,16.2,2.1348e-07,0.0000000212
13,4540,2.19,16.9,2.41164e-07,0.0000000213
13.5,4540,2.4,17.6,2.68783e-07,0.0000000213
14,4540,2.62,18.3,2.96338e-07,0.0000000213
14.5,4540,2.87,19,3.2383e-07,0.0000000214
15,4540,3.13,19.7,3.51257e-07,0.0000000214
15.5,4540,3.41,20.4,3.78622e-07,0.0000000215
16,4540,3.71,21.1,4.05923e-07,0.0000000215
16.5,4540,4.04,21.8,4.33161e-07,0.0000000216
17,4540,4.39,22.5,4.60335e-07,0.0000000216
17.5,4540,4.76,23.1,4.87447e-07,0.0000000217
18,4540,5.15,23.8,5.14496e-07,0.0000000217
18.5,4540,5.57,24.4,5.41482e-07,0.0000000218
19,4540,6.02,25.1,5.68405e-07,0.0000000219
19.5,4540,6.46,25.8,5.95266e-07,0.0000000219
20,4540,7,26.3,6.22065e-07,0.000000022
20.5,4540,7.57,26.8,6.48801e-07,0.0000000221
21,4540,8.17,27.3,6.75476e-07,0.0000000222
21.5,4540,8.79,27.8,7.02088e-07,0.0000000223
22,4540,9.45,28.3,7.28638e-07,0.0000000224
22.5,4540,10.1,28.8,7.55127e-07,0.0000000225
23,4540,10.9,29.2,7.81554e-07,0.0000000226
23.5,4540,11.6,29.7,8.07919e-07,0.0000000228
24,4540,12.4,30.1,8.34224e-07,0.0000000229
24.5,4540,13.2,30.5,8.60466e-07,0.000000023
25,4540,14.1,30.9,8.86648e-07,0.0000000232
25.5,4540,15,31.3,9.12769e-07,0.0000000233
26,4540,15.9,31.6,9.38829e-07,0.0000000235
26.5,4540,16.8,32,9.64828e-07,0.0000000237
27,4540,17.8,32.3,9.90767e-07,0.0000000238
27.5,4540,18.8,32.6,1.01664e-06,0.000000024
28,4540,19.9,32.9,1.04246e-06,0.0000000242
28.5,4540,21,33.2,1.06822e-06,0.0000000244
29,4540,22.1,33.5,1.09392e-06,0.0000000246
29.5,4540,23.2,33.8,1.11955e-06,0.0000000248
30,4540,24.5,34,1.14513e-06,0.000000025
30.5,4540,25.8,34.2,1.17065e-06,0.0000000252
31,4540,27.2,34.4,1.19611e-06,0.0000000255
31.5,4540,28.5,34.6,1.22151e-06,0.0000000257
32,4540,30,34.8,1.24685e-06,0.000000026
32.5,4540,31.4,34.9,1.27213e-06,0.0000000263
33,4540,32.9,35.1,1.29735e-06,0.0000000266
33.5,4540,34.4,35.2,1.32251e-06,0.0000000268
34,4540,36,35.4,1.34761e-06,0.0000000271
34.5,4540,37.6,35.5,1.37266e-06,0.0000000274
35,4540,39.2,35.6,1.39764e-06,0.0000000277
35.5,4540,40.9,35.7,1.42257e-06,0.000000028
36,4540,42.6,35.7,1.44744e-06,0.0000000283
36.5,4540,44.3,35.8,1.47225e-06,0.0000000287
37,4540,46,35.9,1.497e-06,0.000000029
37.5,4540,47.8,35.9,1.5217e-06,0.0000000293
38,4540,49.6,36,1.54633e-06,0.0000000296
38.5,4540,51.4,36,1.57091e-06,0.00000003
39,4540,53.3,36,1.59543e-06,0.0000000303
39.5,4540,55.2,36,1.6199e-06,0.0000000307
40,4540,57.1,36,1.6443e-06,0.000000031
40.5,4540,59.1,36,1.66865e-06,0.0000000313
41,4540,61,35.9,1.69295e-06,0.0000000316
41.5,4540,63,35.9,1.71718e-06,0.000000032
42,4540,65.1,35.9,1.74136e-06,0.0000000323
42.5,4540,67.1,35.8,1.76548e-06,0.0000000326
43,4540,69.2,35.7,1.78955e-06,0.000000033
43.5,4540,71.3,35.7,1.81355e-06,0.0000000333
44,4540,73.4,35.6,1.83751e-06,0.0000000337
44.5,4540,75.5,35.5,1.8614e-06,0.000000034
45,4540,77.7,35.4,1.88524e-06,0.0000000344
45.5,4540,79.8,35.4,1.90903e-06,0.0000000348
46,4540,82,35.3,1.93275e-06,0.0000000352
46.5,4540,84.2,35.2,1.95643e-06,0.0000000355
47,4540,86.4,35.1,1.98004e-06,0.0000000359
47.5,4540,88.7,35,2.0036e-06,0.0000000363
48,4540,90.9,34.9,2.02711e-06,0.0000000368
48.5,4540,93.2,34.8,2.05056e-06,0.0000000372
49,4540,95.4,34.7,2.07396e-06,0.0000000376
49.5,4540,97.7,34.6,2.0973e-06,0.000000038
50,4540,100,34.5,2.12058e-06,0.0000000385
50.5,4540,102,34.4,2.14381e-06,0.000000039
51,4540,105,34.4,2.16699e-06,0.0000000395
51.5,4540,107,34.3,2.19011e-06,0.0000000401
52,4540,109,34.3,2.21318e-06,0.0000000406
52.5,4540,112,34.2,2.23619e-06,0.0000000411
53,4540,114,34.2,2.25915e-06,0.0000000417
53.5,4540,116,34.1,2.28206e-06,0.0000000422
54,4540,119,34.1,2.30491e-06,0.0000000428
54.5,4540,121,34,2.3277e-06,0.0000000434
55,4540,123,34,2.35045e-06,0.000000044
55.5,4540,126,33.9,2.37314e-06,0.0000000446
56,4540,128,33.9,2.39578e-06,0.0000000451
56.5,4540,130,33.8,2.41836e-06,0.0000000457
57,4540,133,33.8,2.44089e-06,0.0000000463
57.5,4540,135,33.7,2.46337e-06,0.0000000469
58,4540,137,33.7,2.48579e-06,0.0000000475
58.5,4540,140,33.6,2.50817e-06,0.0000000482
59,4540,142,33.6,2.53049e-06,0.0000000488
59.5,4540,144,33.6,2.55275e-06,0.0000000494
60,4540,147,33.5,2.57497e-06,0.00000005
60.5,4540,149,33.5,2.59713e-06,0.0000000506
61,4540,151,33.4,2.61924e-06,0.0000000512
61.5,4540,153,33.4,2.6413e-06,0.0000000518
62,4540,155,33.3,2.66331e-06,0.0000000524
62.5,4540,158,33.3,2.68526e-06,0.000000053
63,4540,160,33.2,2.70716e-06,0.0000000536
63.5,4540,162,33.2,2.72902e-06,0.0000000542
64,4540,164,33.1,2.75082e-06,0.0000000548
64.5,4540,166,33.1,2.77257e-06,0.0000000554
65,4540,168,33,2.79426e-06,0.000000056
65.5,4540,170,33,2.81591e-06,0.0000000566
66,4540,172,32.9,2.83751e-06,0.0000000572
66.5,4540,175,32.9,2.85905e-06,0.0000000578
67,4540,177,32.8,2.88055e-06,0.0000000584
67.5,4540,179,32.8,2.90199e-06,0.000000059
68,4540,181,32.7,2.92339e-06,0.0000000596
68.5,4540,183,32.7,2.94473e-06,0.0000000602
69,4540,185,32.6,2.96602e-06,0.0000000608
69.5,4540,187,32.6,2.98727e-06,0.0000000615
70,4540,189,32.5,3.00846e-06,0.000000062
70.5,4540,191,32.4,3.02961e-06,0.0000000625
71,4540,193,32.4,3.0507e-06,0.0000000631
71.5,4540,195,32.3,3.07175e-06,0.0000000636
72,4540,197,32.3,3.09274e-06,0.0000000641
72.5,4540,199,32.2,3.11369e-06,0.0000000646
73,4540,202,32.2,3.13459e-06,0.0000000652
73.5,4540,204,32.1,3.15544e-06,0.0000000657
74,4540,206,32.1,3.17623e-06,0.0000000662
74.5,4540,208,32,3.19699e-06,0.0000000668
75,4540,210,32,3.21769e-06,0.0000000673
75.5,4540,212,31.9,3.23834e-06,0.0000000679
76,4540,214,31.9,3.25895e-06,0.0000000684
76.5,4540,216,31.8,3.27951e-06,0.000000069
77,4540,218,31.8,3.30001e-06,0.0000000695
77.5,4540,220,31.7,3.32048e-06,0.0000000701
78,4540,222,31.7,3.34089e-06,0.0000000706
78.5,4540,224,31.6,3.36126e-06,0.0000000712
79,4540,226,31.6,3.38157e-06,0.0000000718
79.5,4540,228,31.5,3.40184e-06,0.0000000723
80,4540,230,31.5,3.42207e-06,0.000000073
80.5,4540,232,31.5,3.44224e-06,0.0000000737
81,4540,234,31.4,3.46237e-06,0.0000000745
81.5,4540,236,31.4,3.48246e-06,0.0000000752
82,4540,238,31.3,3.50249e-06,0.000000076
82.5,4540,240,31.3,3.52248e-06,0.0000000767
83,4540,242,31.3,3.54242e-06,0.0000000775
83.5,4540,243,31.2,3.56232e-06,0.0000000783
84,4540,245,31.2,3.58217e-06,0.0000000791
84.5,4540,247,31.2,3.60197e-06,0.0000000798
85,4540,249,31.1,3.62173e-06,0.0000000806
85.5,4540,251,31.1,3.64144e-06,0.0000000814
86,4540,253,31.1,3.6611e-06,0.0000000821
86.5,4540,255,31,3.68072e-06,0.0000000829
87,4540,256,31,3.70029e-06,0.0000000836
87.5,4540,258,31,3.71982e-06,0.0000000844
88,4540,260,30.9,3.73931e-06,0.0000000851
88.5,4540,262,30.9,3.75874e-06,0.0000000859
89,4540,263,30.9,3.77814e-06,0.0000000866
89.5,4540,265,30.8,3.79748e-06,0.0000000874
90,4540,267,30.8,3.81679e-06,0.000000088
90.5,4540,269,30.8,3.83604e-06,0.0000000886
91,4540,270,30.7,3.85526e-06,0.0000000891
91.5,4540,272,30.7,3.87443e-06,0.0000000897
92,4540,274,30.6,3.89355e-06,0.0000000902
92.5,4540,276,30.6,3.91263e-06,0.0000000908
93,4540,277,30.6,3.93167e-06,0.0000000913
93.5,4540,279,30.5,3.95066e-06,0.0000000918
94,4540,281,30.5,3.96961e-06,0.0000000923
94.5,4540,282,30.4,3.98851e-06,0.0000000928
95,4540,284,30.4,4.00738e-06,0.0000000932
95.5,4540,286,30.4,4.02619e-06,0.0000000937
96,4540,287,30.3,4.04497e-06,0.0000000942
96.5,4540,289,30.3,4.0637e-06,0.0000000946
97,4540,291,30.2,4.08239e-06,0.000000095
97.5,4540,292,30.2,4.10103e-06,0.0000000955
98,4540,294,30.2,4.11963e-06,0.0000000959
98.5,4540,295,30.1,4.13819e-06,0.0000000963
99,4540,297,30.1,4.15671e-06,0.0000000967
99.5,4540,298,30,4.17519e-06,0.000000097
100,4540,300,30,4.19362e-06,0.0000000975
100.5,4540,302,30,4.21201e-06,0.000000098
101,4540,303,29.9,4.23036e-06,0.0000000985
101.5,4540,305,29.9,4.24866e-06,0.0000000991
102,4540,306,29.8,4.26693e-06,0.0000000996
102.5,4540,307,29.8,4.28515e-06,0.0000001
103,4540,309,29.8,4.30333e-06,0.000000101
103.5,4540,310,29.7,4.32147e-06,0.000000101
104,4540,312,29.7,4.33957e-06,0.000000102
104.5,4540,313,29.7,4.35762e-06,0.000000102
105,4540,315,29.6,4.37564e-06,0.000000103
105.5,4540,316,29.6,4.39362e-06,0.000000103
106,4540,318,29.6,4.41155e-06,0.000000104
106.5,4540,319,29.5,4.42944e-06,0.000000105
107,4540,320,29.5,4.4473e-06,0.000000105
107.5,4540,322,29.5,4.46511e-06,0.000000106
108,4540,323,29.4,4.48288e-06,0.000000106
108.5,4540,324,29.4,4.50061e-06,0.000000107
109,4540,326,29.3,4.5183e-06,0.000000108
109.5,4540,327,29.3,4.53595e-06,0.000000108
110,4540,328,29.3,4.55357e-06,0.000000109
110.5,4540,330,29.2,4.57114e-06,0.000000109
111,4540,331,29.2,4.58867e-06,0.00000011
111.5,4540,332,29.2,4.60616e-06,0.000000111
112,4540,333,29.1,4.62362e-06,0.000000111
112.5,4540,335,29.1,4.64103e-06,0.000000112
113,4540,336,29.1,4.65841e-06,0.000000112
113.5,4540,337,29,4.67575e-06,0.000000113
114,4540,338,29,4.69304e-06,0.000000114
114.5,4540,340,29,4.7103e-06,0.000000114
115,4540,341,28.9,4.72752e-06,0.000000115
115.5,4540,342,28.9,4.7447e-06,0.000000116
116,4540,343,28.9,4.76185e-06,0.000000116
116.5,4540,344,28.8,4.77895e-06,0.000000117
117,4540,346,28.8,4.79602e-06,0.000000118
117.5,4540,347,28.8,4.81305e-06,0.000000118
118,4540,348,28.7,4.83004e-06,0.000000119
118.5,4540,349,28.7,4.847e-06,0.00000012
119,4540,350,28.7,4.86391e-06,0.00000012
119.5,4540,351,28.7,4.88079e-06,0.000000121
120,4540,353,28.6,4.89763e-06,0.000000122
120.5,4540,354,28.6,4.91444e-06,0.000000122
121,4540,355,28.6,4.9312e-06,0.000000123
121.5,4540,356,28.5,4.94793e-06,0.000000124
122,4540,357,28.5,4.96463e-06,0.000000124
122.5,4540,358,28.5,4.98128e-06,0.000000125
123,4540,359,28.4,4.99791e-06,0.000000126
123.5,4540,360,28.4,5.01449e-06,0.000000127
124,4540,361,28.4,5.03104e-06,0.000000127
124.5,4540,362,28.3,5.04755e-06,0.000000128
125,4540,363,28.3,5.06402e-06,0.000000129
125.5,4540,364,28.3,5.08046e-06,0.000000129
126,4540,365,28.3,5.09687e-06,0.00000013
126.5,4540,366,28.2,5.11323e-06,0.000000131
127,4540,367,28.2,5.12957e-06,0.000000132
127.5,4540,368,28.2,5.14586e-06,0.000000132
128,4540,369,28.1,5.16212e-06,0.000000133
128.5,4540,370,28.1,5.17835e-06,0.000000134
129,4540,371,28.1,5.19454e-06,0.000000135
129.5,4540,372,28.1,5.2107e-06,0.000000135
130,4540,373,28,5.22682e-06,0.000000136
130.5,4540,374,28,5.2429e-06,0.000000137
131,4540,375,28,5.25896e-06,0.000000138
131.5,4540,376,27.9,5.27497e-06,0.000000139
132,4540,377,27.9,5.29096e-06,0.000000139
132.5,4540,378,27.9,5.30691e-06,0.00000014
133,4540,379,27.9,5.32282e-06,0.000000141
133.5,4540,380,27.8,5.3387e-06,0.000000142
134,4540,381,27.8,5.35455e-06,0.000000142
134.5,4540,381,27.8,5.37036e-06,0.000000143
135,4540,382,27.8,5.38614e-06,0.000000144
135.5,4540,383,27.7,5.40189e-06,0.000000145
136,4540,384,27.7,5.4176e-06,0.000000146
136.5,4540,385,27.7,5.43328e-06,0.000000146
137,4540,386,27.6,5.44893e-06,0.000000147
137.5,4540,387,27.6,5.46454e-06,0.000000148
138,4540,387,27.6,5.48012e-06,0.000000149
138.5,4540,388,27.6,5.49567e-06,0.00000015
139,4540,389,27.5,5.51119e-06,0.000000151
139.5,4540,390,27.5,5.52667e-06,0.000000151
140,4540,391,27.5,5.54212e-06,0.000000152
140.5,4540,392,27.5,5.55754e-06,0.000000153
141,4540,392,27.4,5.57293e-06,0.000000154
141.5,4540,393,27.4,5.58828e-06,0.000000155
142,4540,394,27.4,5.60361e-06,0.000000156
142.5,4540,395,27.4,5.6189e-06,0.000000157
143,4540,396,27.3,5.63416e-06,0.000000157
143.5,4540,396,27.3,5.64939e-06,0.000000158
144,4540,397,27.3,5.66458e-06,0.000000159
144.5,4540,398,27.3,5.67975e-06,0.00000016
145,4540,399,27.2,5.69488e-06,0.000000161
145.5,4540,399,27.2,5.70999e-06,0.000000162
146,4540,400,27.2,5.72506e-06,0.000000163
146.5,4540,401,27.2,5.7401e-06,0.000000164
147,4540,402,27.1,5.75512e-06,0.000000165
147.5,4540,402,27.1,5.7701e-06,0.000000165
148,4540,403,27.1,5.78505e-06,0.000000166
148.5,4540,404,27.1,5.79997e-06,0.000000167
149,4540,405,27,5.81486e-06,0.000000168
149.5,4540,405,27,5.82972e-06,0.000000169
150,4540,406,27,5.84455e-06,0.00000017
150.5,4540,407,27,5.85935e-06,0.000000171
151,4540,408,27,5.87412e-06,0.000000172
151.5,4540,408,26.9,5.88887e-06,0.000000173
152,4540,409,26.9,5.90358e-06,0.000000174
152.5,4540,410,26.9,5.91826e-06,0.000000175
153,4540,411,26.9,5.93292e-06,0.000000176
153.5,4540,411,26.8,5.94754e-06,0.000000177
154,4540,412,26.8,5.96214e-06,0.000000178
154.5,4540,413,26.8,5.97671e-06,0.000000179
155,4540,414,26.8,5.99125e-06,0.00000018
155.5,4540,414,26.7,6.00576e-06,0.000000181
156,4540,415,26.7,6.02024e-06,0.000000183
156.5,4540,416,26.7,6.0347e-06,0.000000184
157,4540,417,26.7,6.04913e-06,0.000000185
157.5,4540,417,26.7,6.06352e-06,0.000000186
158,4540,418,26.6,6.0779e-06,0.000000187
158.5,4540,419,26.6,6.09224e-06,0.000000188
159,4540,419,26.6,6.10655e-06,0.000000189
159.5,4540,420,26.6,6.12084e-06,0.00000019
160,4540,421,26.6,6.1351e-06,0.000000191
160.5,4540,422,26.5,6.14934e-06,0.000000192
161,4540,422,26.5,6.16354e-06,0.000000193
161.5,4540,423,26.5,6.17772e-06,0.000000194
162,4540,424,26.5,6.19188e-06,0.000000196
162.5,4540,424,26.4,6.206e-06,0.000000197
163,4540,425,26.4,6.2201e-06,0.000000198
163.5,4540,426,26.4,6.23418e-06,0.000000199
164,4540,426,26.4,6.24822e-06,0.0000002
164.5,4540,427,26.4,6.26224e-06,0.000000201
165,4540,428,26.3,6.27624e-06,0.000000202
165.5,4540,428,26.3,6.29021e-06,0.000000203
166,4540,429,26.3,6.30415e-06,0.000000204
166.5,4540,430,26.3,6.31807e-06,0.000000205
167,4540,430,26.3,6.33196e-06,0.000000207
167.5,4540,431,26.2,6.34583e-06,0.000000208
168,4540,432,26.2,6.35967e-06,0.000000209
168.5,4540,432,26.2,6.37348e-06,0.00000021
169,4540,433,26.2,6.38728e-06,0.000000211
169.5,4540,433,26.2,6.40104e-06,0.000000212
170,4540,434,26.1,6.41478e-06,0.000000213
170.5,4540,435,26.1,6.4285e-06,0.000000214
171,4540,435,26.1,6.44219e-06,0.000000216
171.5,4540,436,26.1,6.45586e-06,0.000000217
172,4540,437,26.1,6.4695e-06,0.000000218
172.5,4540,437,26,6.48312e-06,0.000000219
173,4540,438,26,6.49671e-06,0.00000022
173.5,4540,438,26,6.51029e-06,0.000000221
174,4540,439,26,6.52383e-06,0.000000222
174.5,4540,439,26,6.53736e-06,0.000000223
175,4540,440,25.9,6.55086e-06,0.000000225
175.5,4540,441,25.9,6.56433e-06,0.000000226
176,4540,441,25.9,6.57779e-06,0.000000227
176.5,4540,442,25.9,6.59122e-06,0.000000228
177,4540,442,25.9,6.60462e-06,0.000000229
177.5,4540,443,25.8,6.61801e-06,0.00000023
178,4540,443,25.8,6.63137e-06,0.000000231
178.5,4540,444,25.8,6.64471e-06,0.000000232
179,4540,445,25.8,6.65802e-06,0.000000234
179.5,4540,445,25.8,6.67132e-06,0.000000235
180,4540,446,25.7,6.68459e-06,0.000000236
180.5,4540,446,25.7,6.69784e-06,0.000000237
181,4540,447,25.7,6.71106e-06,0.000000238
181.5,4540,447,25.7,6.72427e-06,0.000000239
182,4540,448,25.7,6.73745e-06,0.00000024
182.5,4540,448,25.6,6.75061e-06,0.000000241
183,4540,449,25.6,6.76375e-06,0.000000243
183.5,4540,449,25.6,6.77687e-06,0.000000244
184,4540,450,25.6,6.78997e-06,0.000000245
184.5,4540,450,25.6,6.80305e-06,0.000000246
185,4540,451,25.6,6.8161e-06,0.000000247
185.5,4540,451,25.5,6.82914e-06,0.000000248
186,4540,452,25.5,6.84215e-06,0.000000249
186.5,4540,453,25.5,6.85514e-06,0.00000025
187,4540,453,25.5,6.86811e-06,0.000000252
187.5,4540,454,25.5,6.88107e-06,0.000000253
188,4540,454,25.4,6.894e-06,0.000000254
188.5,4540,454,25.4,6.90691e-06,0.000000255
189,4540,455,25.4,6.9198e-06,0.000000256
189.5,4540,455,25.4,6.93267e-06,0.000000257
190,4540,456,25.4,6.94552e-06,0.000000258
190.5,4540,456,25.3,6.95835e-06,0.000000259
191,4540,457,25.3,6.97117e-06,0.00000026
191.5,4540,457,25.3,6.98396e-06,0.000000262
192,4540,458,25.3,6.99673e-06,0.000000263
192.5,4540,458,25.3,7.00949e-06,0.000000264
193,4540,459,25.3,7.02222e-06,0.000000265
193.5,4540,459,25.2,7.03494e-06,0.000000266
194,4540,460,25.2,7.04764e-06,0.000000267
194.5,4540,460,25.2,7.06032e-06,0.000000268
195,4540,461,25.2,7.07298e-06,0.000000269
195.5,4540,461,25.2,7.08562e-06,0.00000027
196,4540,462,25.1,7.09824e-06,0.000000271
196.5,4540,462,25.1,7.11085e-06,0.000000272
197,4540,462,25.1,7.12343e-06,0.000000274
197.5,4540,463,25.1,7.136e-06,0.000000275
198,4540,463,25.1,7.14856e-06,0.000000276
198.5,4540,464,25.1,7.16109e-06,0.000000277
199,4540,464,25,7.17361e-06,0.000000278
199.5,4540,465,25,7.18611e-06,0.000000279
200,4540,465,25,7.19859e-06,0.00000028
200.5,4540,465,25,7.21105e-06,0.000000281
201,4540,466,25,7.2235e-06,0.000000281
201.5,4540,466,25,7.23593e-06,0.000000282
202,4540,467,24.9,7.24834e-06,0.000000283
202.5,4540,467,24.9,7.26074e-06,0.000000283
203,4540,467,24.9,7.27312e-06,0.000000284
203.5,4540,468,24.9,7.28549e-06,0.000000285
204,4540,468,24.9,7.29783e-06,0.000000285
204.5,4540,469,24.9,7.31017e-06,0.000000286
205,4540,469,24.8,7.32248e-06,0.000000287
205.5,4540,469,24.8,7.33478e-06,0.000000287
206,4540,470,24.8,7.34707e-06,0.000000288
206.5,4540,470,24.8,7.35933e-06,0.000000289
207,4540,471,24.8,7.37159e-06,0.000000289
207.5,4540,471,24.8,7.38382e-06,0.00000029
208,4540,471,24.7,7.39605e-06,0.000000291
208.5,4540,472,24.7,7.40825e-06,0.000000291
209,4540,472,24.7,7.42045e-06,0.000000292
209.5,4540,473,24.7,7.43262e-06,0.000000293
210,4540,473,24.7,7.44478e-06,0.000000293
210.5,4540,473,24.7,7.45693e-06,0.000000294
211,4540,474,24.6,7.46906e-06,0.000000295
211.5,4540,474,24.6,7.48118e-06,0.000000295
212,4540,474,24.6,7.49329e-06,0.000000296
212.5,4540,475,24.6,7.50538e-06,0.000000297
213,4540,475,24.6,7.51745e-06,0.000000297
213.5,4540,475,24.5,7.52952e-06,0.000000298
214,4540,476,24.5,7.54156e-06,0.000000299
214.5,4540,476,24.5,7.5536e-06,0.000000299
215,4540,477,24.5,7.56562e-06,0.0000003
215.5,4540,477,24.5,7.57763e-06,0.000000301
216,4540,477,24.5,7.58962e-06,0.000000301
216.5,4540,478,24.4,7.6016e-06,0.000000302
217,4540,478,24.4,7.61357e-06,0.000000303
217.5,4540,478,24.4,7.62553e-06,0.000000303
218,4540,479,24.4,7.63747e-06,0.000000304
218.5,4540,479,24.4,7.6494e-06,0.000000305
219,4540,479,24.4,7.66132e-06,0.000000305
219.5,4540,480,24.3,7.67322e-06,0.000000306
220,4540,480,24.3,7.68512e-06,0.000000307
220.5,4540,480,24.3,7.697e-06,0.000000307
221,4540,481,24.3,7.70886e-06,0.000000308
221.5,4540,481,24.3,7.72072e-06,0.000000309
222,4540,481,24.2,7.73257e-06,0.00000031
222.5,4540,482,24.2,7.7444e-06,0.00000031
223,4540,482,24.2,7.75622e-06,0.000000311
223.5,4540,482,24.2,7.76803e-06,0.000000312
224,4540,483,24.2,7.77983e-06,0.000000312
224.5,4540,483,24.2,7.79162e-06,0.000000313
225,4540,483,24.1,7.80339e-06,0.000000314
225.5,4540,484,24.1,7.81516e-06,0.000000315
226,4540,484,24.1,7.82692e-06,0.000000315
226.5,4540,484,24.1,7.83866e-06,0.000000316
227,4540,485,24.1,7.85039e-06,0.000000317
227.5,4540,485,24,7.86212e-06,0.000000318
228,4540,485,24,7.87383e-06,0.000000318
228.5,4540,485,24,7.88553e-06,0.000000319
229,4540,486,24,7.89723e-06,0.00000032
229.5,4540,486,24,7.90891e-06,0.000000321
230,4540,486,23.9,7.92058e-06,0.000000322
230.5,4540,487,23.9,7.93225e-06,0.000000322
231,4540,487,23.9,7.9439e-06,0.000000323
231.5,4540,487,23.9,7.95554e-06,0.000000324
232,4540,488,23.9,7.96718e-06,0.000000325
232.5,4540,488,23.8,7.97881e-06,0.000000326
233,4540,488,23.8,7.99042e-06,0.000000326
233.5,4540,489,23.8,8.00203e-06,0.000000327
234,4540,489,23.8,8.01363e-06,0.000000328
234.5,4540,489,23.7,8.02522e-06,0.000000329
235,4540,489,23.7,8.0368e-06,0.00000033
235.5,4540,490,23.7,8.04838e-06,0.000000331
236,4540,490,23.7,8.05994e-06,0.000000332
236.5,4540,490,23.7,8.0715e-06,0.000000332
237,4540,491,23.6,8.08305e-06,0.000000333
237.5,4540,491,23.6,8.09459e-06,0.000000334
238,4540,491,23.6,8.10613e-06,0.000000335
238.5,4540,491,23.6,8.11765e-06,0.000000336
239,4540,492,23.5,8.12917e-06,0.000000337
239.5,4540,492,23.5,8.14068e-06,0.000000338
240,4540,492,23.5,8.15219e-06,0.000000339
240.5,4540,493,23.5,8.16368e-06,0.00000034
241,4540,493,23.5,8.17517e-06,0.000000341
241.5,4540,493,23.4,8.18666e-06,0.000000342
242,4540,493,23.4,8.19813e-06,0.000000343
242.5,4540,494,23.4,8.2096e-06,0.000000344
243,4540,494,23.4,8.22106e-06,0.000000345
243.5,4540,494,23.3,8.23252e-06,0.000000346
244,4540,495,23.3,8.24397e-06,0.000000347
244.5,4540,495,23.3,8.25541e-06,0.000000348
245,4540,495,23.3,8.26685e-06,0.000000349
245.5,4540,495,23.2,8.27829e-06,0.00000035
246,4540,496,23.2,8.28971e-06,0.000000351
246.5,4540,496,23.2,8.30113e-06,0.000000352
247,4540,496,23.2,8.31255e-06,0.000000353
247.5,4540,497,23.1,8.32396e-06,0.000000354
248,4540,497,23.1,8.33536e-06,0.000000355
248.5,4540,497,23.1,8.34676e-06,0.000000357
249,4540,497,23.1,8.35816e-06,0.000000358
249.5,4540,498,23,8.36954e-06,0.000000358
250,4540,498,23,8.38093e-06,0.00000036
250.5,4540,498,23,8.39231e-06,0.000000362
251,4540,499,22.9,8.40368e-06,0.000000363
251.5,4540,499,22.9,8.41506e-06,0.000000365
252,4540,499,22.9,8.42642e-06,0.000000366
252.5,4540,500,22.8,8.43779e-06,0.000000368
253,4540,500,22.8,8.44914e-06,0.000000369
253.5,4540,500,22.8,8.4605e-06,0.000000371
254,4540,500,22.7,8.47185e-06,0.000000372
254.5,4540,501,22.7,8.4832e-06,0.000000374
255,4540,501,22.7,8.49454e-06,0.000000376
255.5,4540,501,22.6,8.50588e-06,0.000000377
256,4540,502,22.6,8.51722e-06,0.000000379
256.5,4540,502,22.6,8.52855e-06,0.00000038
257,4540,502,22.5,8.53988e-06,0.000000382
257.5,4540,503,22.5,8.55121e-06,0.000000383
258,4540,503,22.5,8.56254e-06,0.000000385
258.5,4540,503,22.4,8.57386e-06,0.000000387
259,4540,503,22.4,8.58518e-06,0.000000388
259.5,4540,504,22.4,8.5965e-06,0.00000039
260,4540,504,22.4,8.60781e-06,0.000000391
260.5,4540,504,22.3,8.61913e-06,0.000000393
261,4540,505,22.3,8.63044e-06,0.000000394
261.5,4540,505,22.3,8.64175e-06,0.000000396
262,4540,505,22.2,8.65305e-06,0.000000397
262.5,4540,505,22.2,8.66436e-06,0.000000399
263,4540,506,22.2,8.67566e-06,0.000000401
263.5,4540,506,22.1,8.68697e-06,0.000000402
264,4540,506,22.1,8.69827e-06,0.000000404
264.5,4540,507,22.1,8.70957e-06,0.000000405
265,4540,507,22,8.72087e-06,0.000000407
265.5,4540,507,22,8.73217e-06,0.000000408
266,4540,507,22,8.74347e-06,0.00000041
266.5,4540,508,21.9,8.75476e-06,0.000000411
267,4540,508,21.9,8.76606e-06,0.000000413
267.5,4540,508,21.9,8.77736e-06,0.000000414
268,4540,508,21.8,8.78865e-06,0.000000416
268.5,4540,509,21.8,8.79995e-06,0.000000417
269,4540,509,21.8,8.81125e-06,0.000000419
269.5,4540,509,21.7,8.82254e-06,0.00000042
270,4540,509,21.7,8.83384e-06,0.000000422
270.5,4540,510,21.7,8.84513e-06,0.000000423
271,4540,510,21.6,8.85643e-06,0.000000424
271.5,4540,510,21.6,8.86773e-06,0.000000426
272,4540,510,21.6,8.87903e-06,0.000000427
272.5,4540,511,21.5,8.89033e-06,0.000000429
273,4540,511,21.5,8.90163e-06,0.00000043
273.5,4540,511,21.5,8.91293e-06,0.000000431
274,4540,512,21.4,8.92423e-06,0.000000433
274.5,4540,512,21.4,8.93554e-06,0.000000434
275,4540,512,21.4,8.94684e-06,0.000000435
275.5,4540,512,21.3,8.95815e-06,0.000000437
276,4540,512,21.3,8.96946e-06,0.000000438
276.5,4540,513,21.3,8.98077e-06,0.000000439
277,4540,513,21.2,8.99208e-06,0.000000441
277.5,4540,513,21.2,9.0034e-06,0.000000442
278,4540,513,21.2,9.01471e-06,0.000000443
278.5,4540,514,21.2,9.02603e-06,0.000000444
279,4540,514,21.1,9.03736e-06,0.000000446
279.5,4540,514,21.1,9.04868e-06,0.000000447
280,4540,514,21.1,9.06001e-06,0.000000448
280.5,4540,515,21,9.07134e-06,0.000000449
281,4540,515,21,9.08267e-06,0.00000045
281.5,4540,515,21,9.09401e-06,0.000000452
282,4540,515,20.9,9.10535e-06,0.000000453
282.5,4540,515,20.9,9.11669e-06,0.000000454
283,4540,516,20.9,9.12804e-06,0.000000455
283.5,4540,516,20.9,9.13939e-06,0.000000456
284,4540,516,20.8,9.15074e-06,0.000000457
284.5,4540,516,20.8,9.1621e-06,0.000000458
285,4540,517,20.8,9.17346e-06,0.000000459
285.5,4540,517,20.7,9.18482e-06,0.00000046
286,4540,517,20.7,9.19619e-06,0.000000461
286.5,4540,517,20.7,9.20757e-06,0.000000462
287,4540,517,20.7,9.21895e-06,0.000000463
287.5,4540,518,20.6,9.23033e-06,0.000000464
288,4540,518,20.6,9.24172e-06,0.000000465
288.5,4540,518,20.6,9.25311e-06,0.000000466
289,4540,518,20.5,9.26451e-06,0.000000467
289.5,4540,518,20.5,9.27591e-06,0.000000468
290,4540,519,20.5,9.28732e-06,0.000000468
290.5,4540,519,20.5,9.29874e-06,0.000000469
291,4540,519,20.4,9.31016e-06,0.00000047
291.5,4540,519,20.4,9.32158e-06,0.000000471
292,4540,519,20.4,9.33301e-06,0.000000472
292.5,4540,520,20.4,9.34445e-06,0.000000472
293,4540,520,20.3,9.35589e-06,0.000000473
293.5,4540,520,20.3,9.36734e-06,0.000000474
294,4540,520,20.3,9.37879e-06,0.000000474
294.5,4540,520,20.3,9.39025e-06,0.000000475
295,4540,520,20.2,9.40172e-06,0.000000476
295.5,4540,521,20.2,9.4132e-06,0.000000476
296,4540,521,20.2,9.42468e-06,0.000000477
296.5,4540,521,20.2,9.43617e-06,0.000000477
297,4540,521,20.1,9.44766e-06,0.000000478
297.5,4540,521,20.1,9.45916e-06,0.000000478
298,4540,521,20.1,9.47067e-06,0.000000479
298.5,4540,522,20.1,9.48219e-06,0.000000479
299,4540,522,20,9.49371e-06,0.000000479
299.5,4540,522,20,9.50524e-06,0.00000048
300,4540,522,20,9.51678e-06,0.00000048